Schedule.ID,Spreadsheet.Row,Trial.Number,condition,trial.condition,Response,expected.response.filler,expected.response.prime,numeric.combination,Reaction.Time,accuracy.prime,accuracy.filler,distributive.target,accuracy.twoprimes
22123585,5,23,Baseline,target,2-2_circles_hearts_D.png,,,,6045.8,NA,NA,1,
22123585,6,22,Baseline,target,2-2_triangles_squares_D.png,,,,5211.2,NA,NA,1,
22123585,7,25,Baseline,target,2-2_squares_hearts_D.png,,,,5478.9,NA,NA,1,
22123585,8,9,Baseline,target,2-2_hearts_triangles_D.png,,,,3311.5,NA,NA,1,
22123585,9,27,Baseline,target,2-2_hearts_squares_D.png,,,,6379.5,NA,NA,1,
22123585,10,7,Baseline,target,2-2_circles_triangles_D.png,,,,4030.7,NA,NA,1,
22123585,11,1,Baseline,target,2-2_hearts_squares_D.png,,,,5069,NA,NA,1,
22123585,12,4,Baseline,target,2-2_circles_squares_D.png,,,,6293,NA,NA,1,
22123585,13,30,Baseline,target,2-3_squares_circles_D.png,,,,6552.2,NA,NA,1,
22123585,14,24,Baseline,target,2-3_circles_squares_D.png,,,,5526.1,NA,NA,1,
22123585,15,11,Baseline,target,2-3_hearts_triangles_D.png,,,,5429.5,NA,NA,1,
22123585,16,10,Baseline,target,2-3_squares_triangles_D.png,,,,6763,NA,NA,1,
22123585,17,32,Baseline,target,2-3_hearts_squares_D.png,,,,5322.4,NA,NA,1,
22123585,18,15,Baseline,target,2-3_squares_triangles_D.png,,,,6716.9,NA,NA,1,
22123585,19,3,Baseline,target,2-3_squares_triangles_D.png,,,,13901.8,NA,NA,1,
22123585,20,29,Baseline,target,2-3_triangles_circles_D.png,,,,5205,NA,NA,1,
22123585,21,19,Baseline,filler,1-2_circle_squares.png,1-2_circle_squares.png,,,3751.2,NA,1,NA,
22123585,22,8,Baseline,filler,1-2_circle_hearts.png,1-2_circle_hearts.png,,,3488.3,NA,1,NA,
22123585,23,28,Baseline,filler,1-2_heart_triangles.png,1-2_heart_triangles.png,,,4313.8,NA,1,NA,
22123585,24,6,Baseline,filler,1-2_square_triangles.png,1-2_square_triangles.png,,,3875.8,NA,1,NA,
22123585,25,5,Baseline,filler,1-2_triangle_hearts.png,1-2_triangle_hearts.png,,,3529.3,NA,1,NA,
22123585,26,14,Baseline,filler,1-2_square_triangles.png,1-2_square_triangles.png,,,4274.5,NA,1,NA,
22123585,27,16,Baseline,filler,1-2_triangle_hearts.png,1-2_triangle_hearts.png,,,2819.6,NA,1,NA,
22123585,28,12,Baseline,filler,1-2_triangle_hearts.png,1-2_triangle_hearts.png,,,3879.9,NA,1,NA,
22123585,29,2,Baseline,filler,1-3_circle_hearts.png,1-3_circle_hearts.png,,,2721,NA,1,NA,
22123585,30,18,Baseline,filler,1-3_heart_triangles.png,1-3_heart_triangles.png,,,4096,NA,1,NA,
22123585,31,31,Baseline,filler,1-3_triangle_hearts.png,1-3_triangle_hearts.png,,,2868.5,NA,1,NA,
22123585,32,20,Baseline,filler,1-3_circle_squares.png,1-3_circle_squares.png,,,6191.7,NA,1,NA,
22123585,33,26,Baseline,filler,1-3_circle_triangles.png,1-3_circle_triangles.png,,,5705.9,NA,1,NA,
22123585,34,21,Baseline,filler,1-3_square_circles.png,1-3_square_circles.png,,,3421.9,NA,1,NA,
22123585,35,17,Baseline,filler,1-2_square_triangles.png,1-3_square_triangles.png,,,2164.9,NA,0,NA,
22123585,36,13,Baseline,filler,1-3_heart_triangles.png,1-3_heart_triangles.png,,,3326.2,NA,1,NA,
22123585,38,142,Cumulative,prime1,2-2_hearts_triangles_C.png,,2-2_hearts_triangles_C.png,Equal,7128.3,1,NA,NA,
22123585,39,143,Cumulative,prime2,2-2_circles_squares_C.png,,2-2_circles_squares_C.png,Equal,11381.2,1,NA,NA,
22123585,40,144,Cumulative,target,2-2_circles_hearts_D.png,,,Equal,8032.6,NA,NA,1,2
22123585,41,191,Cumulative,prime1,2-2_triangles_hearts_C.png,,2-2_triangles_hearts_C.png,Equal,3419.4,1,NA,NA,
22123585,42,192,Cumulative,prime2,2-2_squares_circles_C.png,,2-2_squares_circles_C.png,Equal,5975.9,1,NA,NA,
22123585,43,193,Cumulative,target,2-2_hearts_squares_D.png,,,Equal,10528.6,NA,NA,1,2
22123585,44,80,Cumulative,prime1,2-2_squares_circles_C.png,,2-2_squares_circles_C.png,Equal,4838.6,1,NA,NA,
22123585,45,81,Cumulative,prime2,2-3_hearts_triangles_C.png,,2-2_hearts_triangles_C.png,Equal,3784.8,0,NA,NA,
22123585,46,82,Cumulative,target,2-2_triangles_squares_D.png,,,Equal,6845.5,NA,NA,1,1
22123585,47,174,Cumulative,prime1,2-3_squares_circles_C.png,,2-2_squares_circles_C.png,Equal,4342.3,0,NA,NA,
22123585,48,175,Cumulative,prime2,2-2_triangles_hearts_C.png,,2-2_triangles_hearts_C.png,Equal,8123.9,1,NA,NA,
22123585,49,176,Cumulative,target,2-2_circles_triangles_D.png,,,Equal,4679.4,NA,NA,1,1
22123585,50,186,Cumulative,prime1,2-3_hearts_circles_C.png,,2-2_hearts_circles_C.png,Different,3480.1,0,NA,NA,
22123585,51,187,Cumulative,prime2,2-2_triangles_squares_C.png,,2-2_triangles_squares_C.png,Different,8758,1,NA,NA,
22123585,52,188,Cumulative,target,2-3_squares_circles_D.png,,,Different,8417.8,NA,NA,1,1
22123585,53,121,Cumulative,prime1,2-2_squares_triangles_C.png,,2-2_squares_triangles_C.png,Different,29140.3,1,NA,NA,
22123585,54,122,Cumulative,prime2,2-2_hearts_circles_C.png,,2-2_hearts_circles_C.png,Different,4219.8,1,NA,NA,
22123585,55,123,Cumulative,target,2-3_hearts_squares_D.png,,,Different,6676,NA,NA,1,2
22123585,56,95,Cumulative,prime1,2-2_hearts_circles_C.png,,2-2_hearts_circles_C.png,Different,14328.3,1,NA,NA,
22123585,57,96,Cumulative,prime2,2-2_triangles_squares_C.png,,2-2_triangles_squares_C.png,Different,6132.2,1,NA,NA,
22123585,58,97,Cumulative,target,2-3_circles_squares_D.png,,,Different,5186.4,NA,NA,1,2
22123585,59,139,Cumulative,prime1,2-2_circles_hearts_C.png,,2-2_circles_hearts_C.png,Different,6216.6,1,NA,NA,
22123585,60,140,Cumulative,prime2,2-2_squares_triangles_C.png,,2-2_squares_triangles_C.png,Different,7098.8,1,NA,NA,
22123585,61,141,Cumulative,target,2-3_squares_triangles_D.png,,,Different,6755.7,NA,NA,1,2
22123585,62,102,Cumulative,prime1,2-3_hearts_circles_C.png,,2-3_hearts_circles_C.png,Different,9276.7,1,NA,NA,
22123585,63,103,Cumulative,prime2,2-3_squares_triangles_C.png,,2-3_squares_triangles_C.png,Different,11568.7,1,NA,NA,
22123585,64,104,Cumulative,target,2-2_squares_hearts_C.png,,,Different,3429.2,NA,NA,0,2
22123585,65,76,Cumulative,prime1,2-3_hearts_circles_C.png,,2-3_hearts_circles_C.png,Different,7787.3,1,NA,NA,
22123585,66,77,Cumulative,prime2,2-3_triangles_squares_C.png,,2-3_triangles_squares_C.png,Different,4358.5,1,NA,NA,
22123585,67,78,Cumulative,target,2-2_hearts_squares_D.png,,,Different,8317.6,NA,NA,1,2
22123585,68,136,Cumulative,prime1,2-3_squares_circles_C.png,,2-3_squares_circles_C.png,Different,6841,1,NA,NA,
22123585,69,137,Cumulative,prime2,2-3_hearts_triangles_C.png,,2-3_hearts_triangles_C.png,Different,5644.3,1,NA,NA,
22123585,70,138,Cumulative,target,2-2_hearts_triangles_C.png,,,Different,4573.8,NA,NA,0,2
22123585,71,194,Cumulative,prime1,2-3_hearts_squares_C.png,,2-3_hearts_squares_C.png,Different,13038.8,1,NA,NA,
22123585,72,195,Cumulative,prime2,2-3_circles_triangles_C.png,,2-3_circles_triangles_C.png,Different,6700.9,1,NA,NA,
22123585,73,196,Cumulative,target,2-2_circles_squares_D.png,,,Different,6434.5,NA,NA,1,2
22123585,74,99,Cumulative,prime1,2-3_triangles_circles_C.png,,2-3_triangles_circles_C.png,Equal,2613.7,1,NA,NA,
22123585,75,100,Cumulative,prime2,2-3_hearts_squares_C.png,,2-3_hearts_squares_C.png,Equal,6176.8,1,NA,NA,
22123585,76,101,Cumulative,target,2-3_hearts_triangles_D.png,,,Equal,6235.2,NA,NA,1,2
22123585,77,148,Cumulative,prime1,2-3_squares_hearts_C.png,,2-3_squares_hearts_C.png,Equal,6615.7,1,NA,NA,
22123585,78,149,Cumulative,prime2,2-3_triangles_circles_C.png,,2-3_triangles_circles_C.png,Equal,4828,1,NA,NA,
22123585,79,150,Cumulative,target,2-3_squares_triangles_D.png,,,Equal,3460.1,NA,NA,1,2
22123585,80,37,Cumulative,prime1,2-3_hearts_circles_C.png,,2-3_hearts_circles_C.png,Equal,9163.3,1,NA,NA,
22123585,81,38,Cumulative,prime2,2-3_triangles_squares_C.png,,2-3_triangles_squares_C.png,Equal,8161.9,1,NA,NA,
22123585,82,39,Cumulative,target,2-3_squares_triangles_D.png,,,Equal,11768.6,NA,NA,1,2
22123585,83,201,Cumulative,prime1,2-3_circles_hearts_C.png,,2-3_circles_hearts_C.png,Equal,3096.9,1,NA,NA,
22123585,84,202,Cumulative,prime2,2-3_squares_triangles_C.png,,2-3_squares_triangles_C.png,Equal,4935.6,1,NA,NA,
22123585,85,203,Cumulative,target,2-3_triangles_circles_D.png,,,Equal,5806.9,NA,NA,1,2
22123585,86,60,Distributive,prime1,2-2_squares_circles_D.png,,2-2_squares_circles_D.png,Equal,4735.2,1,NA,NA,
22123585,87,61,Distributive,prime2,2-2_hearts_triangles_D.png,,2-2_hearts_triangles_D.png,Equal,6983.9,1,NA,NA,
22123585,88,62,Distributive,target,2-2_triangles_squares_D.png,,,Equal,5463.8,NA,NA,1,2
22123585,89,110,Distributive,prime1,2-2_squares_hearts_D.png,,2-2_squares_hearts_D.png,Equal,7739.6,1,NA,NA,
22123585,90,111,Distributive,prime2,2-2_triangles_circles_D.png,,2-2_triangles_circles_D.png,Equal,9141.6,1,NA,NA,
22123585,91,112,Distributive,target,2-2_circles_hearts_D.png,,,Equal,6050.6,NA,NA,1,2
22123585,92,211,Distributive,prime1,2-2_triangles_hearts_D.png,,2-2_triangles_hearts_D.png,Equal,4437.6,1,NA,NA,
22123585,93,212,Distributive,prime2,2-2_squares_circles_D.png,,2-2_squares_circles_D.png,Equal,15279.9,1,NA,NA,
22123585,94,213,Distributive,target,2-2_squares_circles_D.png,,,Equal,4361.8,NA,NA,1,2
22123585,95,63,Distributive,prime1,2-2_triangles_hearts_D.png,,2-2_triangles_hearts_D.png,Equal,5305.1,1,NA,NA,
22123585,96,64,Distributive,prime2,2-2_circles_squares_D.png,,2-2_circles_squares_D.png,Equal,2834,1,NA,NA,
22123585,97,65,Distributive,target,2-2_squares_circles_D.png,,,Equal,6629.9,NA,NA,1,2
22123585,98,57,Distributive,prime1,2-2_circles_hearts_D.png,,2-2_circles_hearts_D.png,Different,11362.5,1,NA,NA,
22123585,99,58,Distributive,prime2,2-2_squares_triangles_D.png,,2-2_squares_triangles_D.png,Different,7977.6,1,NA,NA,
22123585,100,59,Distributive,target,2-3_triangles_circles_D.png,,,Different,3668.6,NA,NA,1,2
22123585,101,197,Distributive,prime1,2-2_triangles_squares_D.png,,2-2_triangles_squares_D.png,Different,4823.1,1,NA,NA,
22123585,102,198,Distributive,prime2,2-2_hearts_circles_D.png,,2-2_hearts_circles_D.png,Different,5024.5,1,NA,NA,
22123585,103,199,Distributive,target,2-3_circles_triangles_D.png,,,Different,4271.2,NA,NA,1,2
22123585,104,156,Distributive,prime1,2-2_circles_hearts_D.png,,2-2_circles_hearts_D.png,Different,3652.2,1,NA,NA,
22123585,105,157,Distributive,prime2,2-2_squares_triangles_D.png,,2-2_squares_triangles_D.png,Different,6203.9,1,NA,NA,
22123585,106,158,Distributive,target,2-3_squares_circles_D.png,,,Different,6127,NA,NA,1,2
22123585,107,105,Distributive,prime1,2-2_hearts_squares_D.png,,2-2_hearts_squares_D.png,Different,3677.1,1,NA,NA,
22123585,108,106,Distributive,prime2,2-2_triangles_circles_D.png,,2-2_triangles_circles_D.png,Different,4568.2,1,NA,NA,
22123585,109,107,Distributive,target,2-3_squares_hearts_D.png,,,Different,2947.4,NA,NA,1,2
22123585,110,170,Distributive,prime1,2-3_triangles_circles_D.png,,2-3_triangles_circles_D.png,Different,5268.4,1,NA,NA,
22123585,111,171,Distributive,prime2,2-3_squares_hearts_D.png,,2-3_squares_hearts_D.png,Different,5212.4,1,NA,NA,
22123585,112,172,Distributive,target,2-2_squares_hearts_D.png,,,Different,7926,NA,NA,1,2
22123585,113,50,Distributive,prime1,2-3_squares_circles_D.png,,2-3_squares_circles_D.png,Different,10657.3,1,NA,NA,
22123585,114,51,Distributive,prime2,2-3_hearts_triangles_D.png,,2-3_hearts_triangles_D.png,Different,4094.4,1,NA,NA,
22123585,115,52,Distributive,target,2-2_circles_squares_D.png,,,Different,5509.3,NA,NA,1,2
22123585,116,117,Distributive,prime1,2-3_triangles_squares_D.png,,2-3_triangles_squares_D.png,Different,3795.8,1,NA,NA,
22123585,117,118,Distributive,prime2,2-3_hearts_circles_D.png,,2-3_hearts_circles_D.png,Different,4165.8,1,NA,NA,
22123585,118,119,Distributive,target,2-2_triangles_squares_D.png,,,Different,3088.5,NA,NA,1,2
22123585,119,68,Distributive,prime1,2-3_triangles_circles_D.png,,2-3_triangles_circles_D.png,Different,4350.3,1,NA,NA,
22123585,120,69,Distributive,prime2,2-3_squares_hearts_D.png,,2-3_squares_hearts_D.png,Different,3545.6,1,NA,NA,
22123585,121,70,Distributive,target,2-2_squares_circles_D.png,,,Different,3699,NA,NA,1,2
22123585,122,54,Distributive,prime1,2-3_hearts_circles_D.png,,2-3_hearts_circles_D.png,Equal,3700.6,1,NA,NA,
22123585,123,55,Distributive,prime2,2-3_triangles_squares_D.png,,2-3_triangles_squares_D.png,Equal,13131.8,1,NA,NA,
22123585,124,56,Distributive,target,2-3_hearts_circles_D.png,,,Equal,6622.1,NA,NA,1,2
22123585,125,84,Distributive,prime1,2-3_triangles_circles_D.png,,2-3_triangles_circles_D.png,Equal,6535.1,1,NA,NA,
22123585,126,85,Distributive,prime2,2-3_squares_hearts_D.png,,2-3_squares_hearts_D.png,Equal,19109.3,1,NA,NA,
22123585,127,86,Distributive,target,2-3_hearts_triangles_D.png,,,Equal,4318,NA,NA,1,2
22123585,128,183,Distributive,prime1,2-3_hearts_squares_D.png,,2-3_hearts_squares_D.png,Equal,5030,1,NA,NA,
22123585,129,184,Distributive,prime2,2-3_circles_triangles_D.png,,2-3_circles_triangles_D.png,Equal,11749,1,NA,NA,
22123585,130,185,Distributive,target,2-3_triangles_circles_D.png,,,Equal,6080.1,NA,NA,1,2
22123585,131,42,Distributive,prime1,2-3_hearts_triangles_D.png,,2-3_hearts_triangles_D.png,Equal,8708.9,1,NA,NA,
22123585,132,43,Distributive,prime2,2-3_circles_squares_D.png,,2-3_circles_squares_D.png,Equal,3274.2,1,NA,NA,
22123585,133,44,Distributive,target,2-3_squares_hearts_D.png,,,Equal,3405.5,NA,NA,1,2
22123585,134,129,Control,prime1,1-2_circle_squares.png,,1-2_circle_squares.png,Equal,2873.7,1,NA,NA,
22123585,135,130,Control,prime2,1-2_triangle_hearts.png,,1-2_triangle_hearts.png,Equal,4938.5,1,NA,NA,
22123585,136,131,Control,target,2-2_squares_triangles_D.png,,,Equal,8795.3,NA,NA,1,2
22123585,137,205,Control,prime1,1-2_circle_hearts.png,,1-2_circle_hearts.png,Equal,4146.1,1,NA,NA,
22123585,138,206,Control,prime2,1-2_square_triangles.png,,1-2_square_triangles.png,Equal,6516.2,1,NA,NA,
22123585,139,207,Control,target,2-2_hearts_triangles_D.png,,,Equal,9007.4,NA,NA,1,2
22123585,140,222,Control,prime1,1-2_heart_triangles.png,,1-2_heart_triangles.png,Equal,3277.4,1,NA,NA,
22123585,141,223,Control,prime2,1-2_circle_squares.png,,1-2_circle_squares.png,Equal,2664.3,1,NA,NA,
22123585,142,224,Control,target,2-2_triangles_circles_D.png,,,Equal,4361.2,NA,NA,1,2
22123585,143,90,Control,prime1,1-2_square_triangles.png,,1-2_square_triangles.png,Equal,4773.4,1,NA,NA,
22123585,144,91,Control,prime2,1-2_circle_hearts.png,,1-2_circle_hearts.png,Equal,3643.9,1,NA,NA,
22123585,145,92,Control,target,2-2_hearts_circles_D.png,,,Equal,3172.2,NA,NA,1,2
22123585,146,180,Control,prime1,1-2_triangle_hearts.png,,1-2_triangle_hearts.png,Different,3929.5,1,NA,NA,
22123585,147,181,Control,prime2,1-2_circle_squares.png,,1-2_circle_squares.png,Different,4597,1,NA,NA,
22123585,148,182,Control,target,2-3_squares_triangles_D.png,,,Different,4923.1,NA,NA,1,2
22123585,149,162,Control,prime1,1-2_square_triangles.png,,1-2_square_triangles.png,Different,3144,1,NA,NA,
22123585,150,163,Control,prime2,1-2_heart_circles.png,,1-2_heart_circles.png,Different,2576.9,1,NA,NA,
22123585,151,164,Control,target,2-3_squares_triangles_D.png,,,Different,3928,NA,NA,1,2
22123585,152,177,Control,prime1,1-2_triangle_hearts.png,,1-2_triangle_hearts.png,Different,5610,1,NA,NA,
22123585,153,178,Control,prime2,1-2_circle_squares.png,,1-2_circle_squares.png,Different,4757.8,1,NA,NA,
22123585,154,179,Control,target,2-3_circles_squares_D.png,,,Different,5664.9,NA,NA,1,2
22123585,155,71,Control,prime1,1-2_triangle_hearts.png,,1-2_triangle_hearts.png,Different,8333.3,1,NA,NA,
22123585,156,72,Control,prime2,1-2_circle_squares.png,,1-2_circle_squares.png,Different,5247.7,1,NA,NA,
22123585,157,73,Control,target,2-3_circles_triangles_D.png,,,Different,3104.9,NA,NA,1,2
22123585,158,47,Control,prime1,1-3_circle_hearts.png,,1-3_circle_hearts.png,Different,4484.7,1,NA,NA,
22123585,159,48,Control,prime2,1-3_triangle_squares.png,,1-3_triangle_squares.png,Different,3822.6,1,NA,NA,
22123585,160,49,Control,target,2-2_circles_hearts_D.png,,,Different,7605.4,NA,NA,1,2
22123585,161,219,Control,prime1,1-3_heart_triangles.png,,1-3_heart_triangles.png,Different,2912.1,1,NA,NA,
22123585,162,220,Control,prime2,1-3_circle_squares.png,,1-3_circle_squares.png,Different,1969.6,1,NA,NA,
22123585,163,221,Control,target,2-2_triangles_circles_D.png,,,Different,5006.3,NA,NA,1,2
22123585,164,153,Control,prime1,1-3_triangle_hearts.png,,1-3_triangle_hearts.png,Different,3510.9,1,NA,NA,
22123585,165,154,Control,prime2,1-3_circle_squares.png,,1-3_circle_squares.png,Different,4269.9,1,NA,NA,
22123585,166,155,Control,target,2-2_hearts_circles_D.png,,,Different,6109.6,NA,NA,1,2
22123585,167,215,Control,prime1,1-3_circle_squares.png,,1-3_circle_squares.png,Different,3786.6,1,NA,NA,
22123585,168,216,Control,prime2,1-3_heart_triangles.png,,1-3_heart_triangles.png,Different,5842.7,1,NA,NA,
22123585,169,217,Control,target,2-2_triangles_hearts_D.png,,,Different,7706.3,NA,NA,1,2
22123585,170,165,Control,prime1,1-3_circle_triangles.png,,1-3_circle_triangles.png,Equal,3392.3,1,NA,NA,
22123585,171,166,Control,prime2,1-3_heart_squares.png,,1-3_heart_squares.png,Equal,2769,1,NA,NA,
22123585,172,167,Control,target,2-3_squares_triangles_D.png,,,Equal,6236.3,NA,NA,1,2
22123585,173,87,Control,prime1,1-3_square_circles.png,,1-3_square_circles.png,Equal,2521.5,1,NA,NA,
22123585,174,88,Control,prime2,1-3_triangle_hearts.png,,1-3_triangle_hearts.png,Equal,3921.7,1,NA,NA,
22123585,175,89,Control,target,2-3_hearts_circles_D.png,,,Equal,8649.3,NA,NA,1,2
22123585,176,33,Control,prime1,1-3_square_triangles.png,,1-3_square_triangles.png,Equal,4195.5,1,NA,NA,
22123585,177,34,Control,prime2,1-3_circle_hearts.png,,1-3_circle_hearts.png,Equal,3020.7,1,NA,NA,
22123585,178,35,Control,target,2-3_circles_hearts_D.png,,,Equal,2485.9,NA,NA,1,2
22123585,179,208,Control,prime1,1-3_heart_triangles.png,,1-3_heart_triangles.png,Equal,2478.2,1,NA,NA,
22123585,180,209,Control,prime2,1-3_square_circles.png,,1-3_square_circles.png,Equal,3369.9,1,NA,NA,
22123585,181,210,Control,target,2-3_circles_squares_D.png,,,Equal,11130,NA,NA,1,2
22123585,182,189,Cumulative,filler,2-2_circles_triangles_C.png,2-2_circles_triangles_C.png,,,14131.8,NA,1,NA,
22123585,183,41,Cumulative,filler,2-2_hearts_squares_C.png,2-2_hearts_squares_C.png,,,4582.4,NA,1,NA,
22123585,184,113,Cumulative,filler,2-2_squares_hearts_C.png,2-2_squares_hearts_C.png,,,14294.2,NA,1,NA,
22123585,185,66,Cumulative,filler,2-2_squares_hearts_C.png,2-2_squares_hearts_C.png,,,18946.5,NA,1,NA,
22123585,186,79,Cumulative,filler,2-2_circles_hearts_C.png,2-2_circles_hearts_C.png,,,6880.2,NA,1,NA,
22123585,187,108,Cumulative,filler,2-2_circles_squares_C.png,2-2_circles_squares_C.png,,,3346.8,NA,1,NA,
22123585,188,67,Cumulative,filler,2-2_hearts_triangles_C.png,2-2_hearts_triangles_C.png,,,5934.7,NA,1,NA,
22123585,189,36,Cumulative,filler,2-2_squares_circles_C.png,2-2_squares_circles_C.png,,,18766.5,NA,1,NA,
22123585,190,168,Cumulative,filler,2-2_squares_triangles_C.png,2-2_squares_triangles_C.png,,,5049.4,NA,1,NA,
22123585,191,135,Cumulative,filler,2-2_triangles_hearts_C.png,2-2_triangles_hearts_C.png,,,5441.5,NA,1,NA,
22123585,192,120,Cumulative,filler,2-2_circles_triangles_C.png,2-2_circles_triangles_C.png,,,5132.9,NA,1,NA,
22123585,193,169,Cumulative,filler,2-2_circles_triangles_C.png,2-2_circles_triangles_C.png,,,7638.5,NA,1,NA,
22123585,194,93,Cumulative,filler,2-3_hearts_triangles_C.png,2-3_hearts_triangles_C.png,,,5381.4,NA,1,NA,
22123585,195,83,Cumulative,filler,2-3_triangles_hearts_C.png,2-3_triangles_hearts_C.png,,,6639.2,NA,1,NA,
22123585,196,40,Cumulative,filler,2-3_squares_hearts_C.png,2-3_squares_hearts_C.png,,,7193.8,NA,1,NA,
22123585,197,45,Cumulative,filler,2-3_hearts_squares_C.png,2-3_hearts_squares_C.png,,,8738.9,NA,1,NA,
22123585,198,151,Cumulative,filler,2-3_squares_triangles_C.png,2-3_squares_triangles_C.png,,,4689.8,NA,1,NA,
22123585,199,128,Cumulative,filler,2-3_squares_hearts_C.png,2-3_squares_hearts_C.png,,,7593,NA,1,NA,
22123585,200,190,Cumulative,filler,2-3_circles_triangles_C.png,2-3_circles_triangles_C.png,,,2941.8,NA,1,NA,
22123585,201,53,Cumulative,filler,2-3_circles_hearts_C.png,2-3_circles_hearts_C.png,,,7256.2,NA,1,NA,
22123585,202,152,Cumulative,filler,2-3_hearts_triangles_C.png,2-3_hearts_triangles_C.png,,,5026.1,NA,1,NA,
22123585,203,218,Cumulative,filler,2-3_circles_triangles_C.png,2-3_circles_triangles_C.png,,,4774.4,NA,1,NA,
22123585,204,116,Cumulative,filler,2-3_circles_triangles_C.png,2-3_circles_triangles_C.png,,,3020.8,NA,1,NA,
22123585,205,94,Cumulative,filler,2-3_triangles_circles_C.png,2-3_triangles_circles_C.png,,,7177.6,NA,1,NA,
22123585,206,46,Distributive,filler,2-2_triangles_circles_D.png,2-2_triangles_circles_D.png,,,8870.6,NA,1,NA,
22123585,207,159,Distributive,filler,2-2_squares_triangles_D.png,2-2_squares_triangles_D.png,,,4752.8,NA,1,NA,
22123585,208,98,Distributive,filler,2-2_triangles_squares_D.png,2-2_triangles_squares_D.png,,,7481.1,NA,1,NA,
22123585,209,200,Distributive,filler,2-2_hearts_circles_D.png,2-2_hearts_circles_D.png,,,4840.4,NA,1,NA,
22123585,210,75,Distributive,filler,2-2_squares_hearts_D.png,2-2_squares_hearts_D.png,,,8564.7,NA,1,NA,
22123585,211,204,Distributive,filler,2-3_hearts_triangles_C.png,2-2_hearts_triangles_D.png,,,4915,NA,0,NA,
22123585,212,115,Distributive,filler,2-2_circles_triangles_D.png,2-2_circles_triangles_D.png,,,8301,NA,1,NA,
22123585,213,74,Distributive,filler,2-2_hearts_triangles_D.png,2-2_hearts_triangles_D.png,,,10364.1,NA,1,NA,
22123585,214,132,Distributive,filler,2-2_hearts_squares_D.png,2-2_hearts_squares_D.png,,,4131.3,NA,1,NA,
22123585,215,127,Distributive,filler,2-3_squares_triangles_C.png,2-2_squares_triangles_D.png,,,5644.3,NA,0,NA,
22123585,216,109,Distributive,filler,2-2_squares_hearts_D.png,2-2_squares_hearts_D.png,,,7941.8,NA,1,NA,
22123585,217,145,Distributive,filler,2-2_triangles_circles_D.png,2-2_triangles_circles_D.png,,,14885.3,NA,1,NA,
22123585,218,160,Distributive,filler,2-3_triangles_hearts_D.png,2-3_triangles_hearts_D.png,,,4492.5,NA,1,NA,
22123585,219,147,Distributive,filler,2-3_hearts_triangles_D.png,2-3_hearts_triangles_D.png,,,3442.3,NA,1,NA,
22123585,220,126,Distributive,filler,2-3_hearts_triangles_D.png,2-3_hearts_triangles_D.png,,,5749.5,NA,1,NA,
22123585,221,133,Distributive,filler,2-3_circles_hearts_D.png,2-3_circles_hearts_D.png,,,2886.3,NA,1,NA,
22123585,222,146,Distributive,filler,2-3_squares_triangles_D.png,2-3_squares_triangles_D.png,,,4610.9,NA,1,NA,
22123585,223,161,Distributive,filler,2-3_circles_hearts_D.png,2-3_circles_hearts_D.png,,,5104.8,NA,1,NA,
22123585,224,125,Distributive,filler,2-3_squares_triangles_D.png,2-3_squares_triangles_D.png,,,7324.6,NA,1,NA,
22123585,225,173,Distributive,filler,2-3_hearts_circles_D.png,2-3_hearts_circles_D.png,,,5078.6,NA,1,NA,
22123585,226,114,Distributive,filler,2-3_hearts_triangles_D.png,2-3_hearts_triangles_D.png,,,5667.7,NA,1,NA,
22123585,227,214,Distributive,filler,2-3_squares_hearts_D.png,2-3_squares_hearts_D.png,,,6415.8,NA,1,NA,
22123585,228,124,Distributive,filler,2-3_triangles_circles_D.png,2-3_triangles_circles_D.png,,,3998.7,NA,1,NA,
22123585,229,134,Distributive,filler,2-3_squares_hearts_D.png,2-3_squares_hearts_D.png,,,3307.7,NA,1,NA,
22123587,5,13,Baseline,target,2-2_circles_hearts_D.png,,,,2152.1,NA,NA,1,
22123587,6,30,Baseline,target,2-2_triangles_squares_D.png,,,,2261.7,NA,NA,1,
22123587,7,23,Baseline,target,2-2_squares_hearts_D.png,,,,2766.5,NA,NA,1,
22123587,8,6,Baseline,target,2-2_hearts_triangles_D.png,,,,2383.3,NA,NA,1,
22123587,9,26,Baseline,target,2-2_hearts_squares_D.png,,,,4431,NA,NA,1,
22123587,10,4,Baseline,target,2-2_circles_triangles_D.png,,,,4882.2,NA,NA,1,
22123587,11,16,Baseline,target,2-2_hearts_squares_D.png,,,,2380.5,NA,NA,1,
22123587,12,12,Baseline,target,2-2_circles_squares_D.png,,,,2684.1,NA,NA,1,
22123587,13,19,Baseline,target,2-3_squares_circles_D.png,,,,3840.5,NA,NA,1,
22123587,14,7,Baseline,target,2-3_circles_squares_D.png,,,,4387.2,NA,NA,1,
22123587,15,5,Baseline,target,2-3_hearts_triangles_D.png,,,,3608.1,NA,NA,1,
22123587,16,32,Baseline,target,2-3_squares_triangles_D.png,,,,3330.7,NA,NA,1,
22123587,17,25,Baseline,target,2-3_hearts_squares_D.png,,,,2307.4,NA,NA,1,
22123587,18,11,Baseline,target,2-3_squares_triangles_D.png,,,,2183.6,NA,NA,1,
22123587,19,14,Baseline,target,2-3_squares_triangles_D.png,,,,2615.6,NA,NA,1,
22123587,20,1,Baseline,target,2-3_triangles_circles_D.png,,,,5635.8,NA,NA,1,
22123587,21,27,Baseline,filler,1-2_circle_squares.png,1-2_circle_squares.png,,,1655.7,NA,1,NA,
22123587,22,29,Baseline,filler,1-2_circle_hearts.png,1-2_circle_hearts.png,,,3911.5,NA,1,NA,
22123587,23,2,Baseline,filler,1-2_heart_triangles.png,1-2_heart_triangles.png,,,2672.6,NA,1,NA,
22123587,24,20,Baseline,filler,1-2_square_triangles.png,1-2_square_triangles.png,,,3217.2,NA,1,NA,
22123587,25,22,Baseline,filler,1-2_triangle_hearts.png,1-2_triangle_hearts.png,,,1973.1,NA,1,NA,
22123587,26,24,Baseline,filler,1-2_square_triangles.png,1-2_square_triangles.png,,,2509.7,NA,1,NA,
22123587,27,15,Baseline,filler,1-2_triangle_hearts.png,1-2_triangle_hearts.png,,,2298.5,NA,1,NA,
22123587,28,31,Baseline,filler,1-2_triangle_hearts.png,1-2_triangle_hearts.png,,,1839.5,NA,1,NA,
22123587,29,3,Baseline,filler,1-3_circle_hearts.png,1-3_circle_hearts.png,,,2200,NA,1,NA,
22123587,30,18,Baseline,filler,1-3_heart_triangles.png,1-3_heart_triangles.png,,,2787.7,NA,1,NA,
22123587,31,10,Baseline,filler,1-3_triangle_hearts.png,1-3_triangle_hearts.png,,,1522.8,NA,1,NA,
22123587,32,28,Baseline,filler,1-3_circle_squares.png,1-3_circle_squares.png,,,1947.9,NA,1,NA,
22123587,33,21,Baseline,filler,1-3_circle_triangles.png,1-3_circle_triangles.png,,,1658.3,NA,1,NA,
22123587,34,8,Baseline,filler,1-3_square_circles.png,1-3_square_circles.png,,,4817.7,NA,1,NA,
22123587,35,17,Baseline,filler,1-3_square_triangles.png,1-3_square_triangles.png,,,2873.1,NA,1,NA,
22123587,36,9,Baseline,filler,1-3_heart_triangles.png,1-3_heart_triangles.png,,,2050.4,NA,1,NA,
22123587,38,44,Cumulative,prime1,2-2_hearts_triangles_C.png,,2-2_hearts_triangles_C.png,Equal,2084.4,1,NA,NA,
22123587,39,45,Cumulative,prime2,2-3_circles_squares_C.png,,2-2_circles_squares_C.png,Equal,2587.5,0,NA,NA,
22123587,40,46,Cumulative,target,2-2_circles_hearts_C.png,,,Equal,3415.2,NA,NA,0,1
22123587,41,106,Cumulative,prime1,2-2_triangles_hearts_C.png,,2-2_triangles_hearts_C.png,Equal,5056.7,1,NA,NA,
22123587,42,107,Cumulative,prime2,2-2_squares_circles_C.png,,2-2_squares_circles_C.png,Equal,1665.3,1,NA,NA,
22123587,43,108,Cumulative,target,2-2_hearts_squares_C.png,,,Equal,2195.1,NA,NA,0,2
22123587,44,60,Cumulative,prime1,2-2_squares_circles_C.png,,2-2_squares_circles_C.png,Equal,2236.9,1,NA,NA,
22123587,45,61,Cumulative,prime2,2-2_hearts_triangles_C.png,,2-2_hearts_triangles_C.png,Equal,2707.2,1,NA,NA,
22123587,46,62,Cumulative,target,2-2_triangles_squares_C.png,,,Equal,2243.3,NA,NA,0,2
22123587,47,37,Cumulative,prime1,2-2_squares_circles_C.png,,2-2_squares_circles_C.png,Equal,8375.1,1,NA,NA,
22123587,48,38,Cumulative,prime2,2-2_triangles_hearts_C.png,,2-2_triangles_hearts_C.png,Equal,2502.7,1,NA,NA,
22123587,49,39,Cumulative,target,2-2_circles_triangles_C.png,,,Equal,2164.4,NA,NA,0,2
22123587,50,210,Cumulative,prime1,2-2_hearts_circles_C.png,,2-2_hearts_circles_C.png,Different,1767.3,1,NA,NA,
22123587,51,211,Cumulative,prime2,2-2_triangles_squares_C.png,,2-2_triangles_squares_C.png,Different,1464.7,1,NA,NA,
22123587,52,212,Cumulative,target,2-3_squares_circles_C.png,,,Different,2220.7,NA,NA,0,2
22123587,53,54,Cumulative,prime1,2-2_squares_triangles_C.png,,2-2_squares_triangles_C.png,Different,2359.7,1,NA,NA,
22123587,54,55,Cumulative,prime2,2-3_hearts_circles_C.png,,2-2_hearts_circles_C.png,Different,2405.7,0,NA,NA,
22123587,55,56,Cumulative,target,2-3_hearts_squares_D.png,,,Different,4649.2,NA,NA,1,1
22123587,56,150,Cumulative,prime1,2-2_hearts_circles_C.png,,2-2_hearts_circles_C.png,Different,10349.5,1,NA,NA,
22123587,57,151,Cumulative,prime2,2-2_triangles_squares_C.png,,2-2_triangles_squares_C.png,Different,2298.9,1,NA,NA,
22123587,58,152,Cumulative,target,2-3_circles_squares_D.png,,,Different,2277.6,NA,NA,1,2
22123587,59,142,Cumulative,prime1,2-2_circles_hearts_C.png,,2-2_circles_hearts_C.png,Different,8370,1,NA,NA,
22123587,60,143,Cumulative,prime2,2-2_squares_triangles_C.png,,2-2_squares_triangles_C.png,Different,2002.6,1,NA,NA,
22123587,61,144,Cumulative,target,2-3_squares_triangles_C.png,,,Different,1520.9,NA,NA,0,2
22123587,62,122,Cumulative,prime1,2-3_hearts_circles_C.png,,2-3_hearts_circles_C.png,Different,1630.7,1,NA,NA,
22123587,63,123,Cumulative,prime2,2-2_squares_triangles_C.png,,2-3_squares_triangles_C.png,Different,2202.6,0,NA,NA,
22123587,64,124,Cumulative,target,2-2_squares_hearts_C.png,,,Different,2807.2,NA,NA,0,1
22123587,65,75,Cumulative,prime1,2-3_hearts_circles_C.png,,2-3_hearts_circles_C.png,Different,1581.2,1,NA,NA,
22123587,66,76,Cumulative,prime2,2-3_triangles_squares_C.png,,2-3_triangles_squares_C.png,Different,1818.1,1,NA,NA,
22123587,67,77,Cumulative,target,2-2_hearts_squares_C.png,,,Different,2877.1,NA,NA,0,2
22123587,68,114,Cumulative,prime1,2-2_squares_circles_C.png,,2-3_squares_circles_C.png,Different,1082.9,0,NA,NA,
22123587,69,115,Cumulative,prime2,2-3_hearts_triangles_C.png,,2-3_hearts_triangles_C.png,Different,2378.9,1,NA,NA,
22123587,70,116,Cumulative,target,2-2_hearts_triangles_C.png,,,Different,2072.3,NA,NA,0,1
22123587,71,203,Cumulative,prime1,2-3_hearts_squares_C.png,,2-3_hearts_squares_C.png,Different,1379.3,1,NA,NA,
22123587,72,204,Cumulative,prime2,2-3_circles_triangles_C.png,,2-3_circles_triangles_C.png,Different,1957.5,1,NA,NA,
22123587,73,205,Cumulative,target,2-2_circles_squares_C.png,,,Different,1279.7,NA,NA,0,2
22123587,74,145,Cumulative,prime1,2-3_triangles_circles_C.png,,2-3_triangles_circles_C.png,Equal,1765.3,1,NA,NA,
22123587,75,146,Cumulative,prime2,2-3_hearts_squares_C.png,,2-3_hearts_squares_C.png,Equal,1600.3,1,NA,NA,
22123587,76,147,Cumulative,target,2-3_hearts_triangles_C.png,,,Equal,2126.9,NA,NA,0,2
22123587,77,103,Cumulative,prime1,2-3_squares_hearts_C.png,,2-3_squares_hearts_C.png,Equal,1706.8,1,NA,NA,
22123587,78,104,Cumulative,prime2,2-3_triangles_circles_C.png,,2-3_triangles_circles_C.png,Equal,1756.6,1,NA,NA,
22123587,79,105,Cumulative,target,2-3_squares_triangles_C.png,,,Equal,2177.1,NA,NA,0,2
22123587,80,100,Cumulative,prime1,2-3_hearts_circles_C.png,,2-3_hearts_circles_C.png,Equal,2280.3,1,NA,NA,
22123587,81,101,Cumulative,prime2,2-3_triangles_squares_C.png,,2-3_triangles_squares_C.png,Equal,2629,1,NA,NA,
22123587,82,102,Cumulative,target,2-3_squares_triangles_C.png,,,Equal,4524.8,NA,NA,0,2
22123587,83,154,Cumulative,prime1,2-3_circles_hearts_C.png,,2-3_circles_hearts_C.png,Equal,8375.9,1,NA,NA,
22123587,84,155,Cumulative,prime2,2-3_squares_triangles_C.png,,2-3_squares_triangles_C.png,Equal,3207.6,1,NA,NA,
22123587,85,156,Cumulative,target,2-3_triangles_circles_C.png,,,Equal,11254.6,NA,NA,0,2
22123587,86,135,Distributive,prime1,2-2_squares_circles_D.png,,2-2_squares_circles_D.png,Equal,2451.8,1,NA,NA,
22123587,87,136,Distributive,prime2,2-2_hearts_triangles_D.png,,2-2_hearts_triangles_D.png,Equal,2138.8,1,NA,NA,
22123587,88,137,Distributive,target,2-2_triangles_squares_D.png,,,Equal,2176.1,NA,NA,1,2
22123587,89,221,Distributive,prime1,2-2_squares_hearts_D.png,,2-2_squares_hearts_D.png,Equal,1507.1,1,NA,NA,
22123587,90,222,Distributive,prime2,2-2_triangles_circles_D.png,,2-2_triangles_circles_D.png,Equal,1165.3,1,NA,NA,
22123587,91,223,Distributive,target,2-2_circles_hearts_D.png,,,Equal,1297.1,NA,NA,1,2
22123587,92,164,Distributive,prime1,2-2_triangles_hearts_D.png,,2-2_triangles_hearts_D.png,Equal,1738.2,1,NA,NA,
22123587,93,165,Distributive,prime2,2-2_squares_circles_D.png,,2-2_squares_circles_D.png,Equal,2593.3,1,NA,NA,
22123587,94,166,Distributive,target,2-2_squares_circles_D.png,,,Equal,2138.3,NA,NA,1,2
22123587,95,168,Distributive,prime1,2-2_triangles_hearts_D.png,,2-2_triangles_hearts_D.png,Equal,2141.3,1,NA,NA,
22123587,96,169,Distributive,prime2,2-2_circles_squares_D.png,,2-2_circles_squares_D.png,Equal,2556.7,1,NA,NA,
22123587,97,170,Distributive,target,2-2_squares_circles_C.png,,,Equal,2356.8,NA,NA,0,2
22123587,98,110,Distributive,prime1,2-2_circles_hearts_D.png,,2-2_circles_hearts_D.png,Different,6064.8,1,NA,NA,
22123587,99,111,Distributive,prime2,2-2_squares_triangles_D.png,,2-2_squares_triangles_D.png,Different,2604.8,1,NA,NA,
22123587,100,112,Distributive,target,2-3_triangles_circles_D.png,,,Different,1611.9,NA,NA,1,2
22123587,101,157,Distributive,prime1,2-2_triangles_squares_D.png,,2-2_triangles_squares_D.png,Different,13733,1,NA,NA,
22123587,102,158,Distributive,prime2,2-2_hearts_circles_D.png,,2-2_hearts_circles_D.png,Different,20686.5,1,NA,NA,
22123587,103,159,Distributive,target,2-3_circles_triangles_C.png,,,Different,2059.5,NA,NA,0,2
22123587,104,171,Distributive,prime1,2-2_circles_hearts_D.png,,2-2_circles_hearts_D.png,Different,2507.4,1,NA,NA,
22123587,105,172,Distributive,prime2,2-2_squares_triangles_D.png,,2-2_squares_triangles_D.png,Different,2231,1,NA,NA,
22123587,106,173,Distributive,target,2-3_squares_circles_D.png,,,Different,2765.4,NA,NA,1,2
22123587,107,66,Distributive,prime1,2-2_hearts_squares_D.png,,2-2_hearts_squares_D.png,Different,1618.1,1,NA,NA,
22123587,108,67,Distributive,prime2,2-2_triangles_circles_D.png,,2-2_triangles_circles_D.png,Different,1654.5,1,NA,NA,
22123587,109,68,Distributive,target,2-3_squares_hearts_D.png,,,Different,2185.5,NA,NA,1,2
22123587,110,47,Distributive,prime1,2-3_triangles_circles_D.png,,2-3_triangles_circles_D.png,Different,2585.4,1,NA,NA,
22123587,111,48,Distributive,prime2,2-3_squares_hearts_D.png,,2-3_squares_hearts_D.png,Different,2506.7,1,NA,NA,
22123587,112,49,Distributive,target,2-2_squares_hearts_D.png,,,Different,2361.9,NA,NA,1,2
22123587,113,161,Distributive,prime1,2-3_squares_circles_D.png,,2-3_squares_circles_D.png,Different,1700598.5,1,NA,NA,
22123587,114,162,Distributive,prime2,2-3_hearts_triangles_D.png,,2-3_hearts_triangles_D.png,Different,2614,1,NA,NA,
22123587,115,163,Distributive,target,2-2_circles_squares_C.png,,,Different,1826,NA,NA,0,2
22123587,116,196,Distributive,prime1,2-3_triangles_squares_D.png,,2-3_triangles_squares_D.png,Different,146852.5,1,NA,NA,
22123587,117,197,Distributive,prime2,2-3_hearts_circles_D.png,,2-3_hearts_circles_D.png,Different,2875.6,1,NA,NA,
22123587,118,198,Distributive,target,2-2_triangles_squares_D.png,,,Different,2363.8,NA,NA,1,2
22123587,119,215,Distributive,prime1,2-3_triangles_circles_D.png,,2-3_triangles_circles_D.png,Different,1130.8,1,NA,NA,
22123587,120,216,Distributive,prime2,2-3_squares_hearts_D.png,,2-3_squares_hearts_D.png,Different,1350.1,1,NA,NA,
22123587,121,217,Distributive,target,2-2_squares_circles_C.png,,,Different,1145.6,NA,NA,0,2
22123587,122,84,Distributive,prime1,2-3_hearts_circles_D.png,,2-3_hearts_circles_D.png,Equal,2654.2,1,NA,NA,
22123587,123,85,Distributive,prime2,2-3_triangles_squares_D.png,,2-3_triangles_squares_D.png,Equal,2967.7,1,NA,NA,
22123587,124,86,Distributive,target,2-3_hearts_circles_C.png,,,Equal,2515.4,NA,NA,0,2
22123587,125,126,Distributive,prime1,2-3_triangles_circles_D.png,,2-3_triangles_circles_D.png,Equal,2055.2,1,NA,NA,
22123587,126,127,Distributive,prime2,2-3_squares_hearts_D.png,,2-3_squares_hearts_D.png,Equal,1594.9,1,NA,NA,
22123587,127,128,Distributive,target,2-3_hearts_triangles_C.png,,,Equal,1949.3,NA,NA,0,2
22123587,128,93,Distributive,prime1,2-3_hearts_squares_D.png,,2-3_hearts_squares_D.png,Equal,4369.2,1,NA,NA,
22123587,129,94,Distributive,prime2,2-3_circles_triangles_D.png,,2-3_circles_triangles_D.png,Equal,2337.2,1,NA,NA,
22123587,130,95,Distributive,target,2-3_triangles_circles_D.png,,,Equal,2306.6,NA,NA,1,2
22123587,131,218,Distributive,prime1,2-3_hearts_triangles_D.png,,2-3_hearts_triangles_D.png,Equal,1237.3,1,NA,NA,
22123587,132,219,Distributive,prime2,2-3_circles_squares_D.png,,2-3_circles_squares_D.png,Equal,1566.7,1,NA,NA,
22123587,133,220,Distributive,target,2-3_squares_hearts_C.png,,,Equal,1588.1,NA,NA,0,2
22123587,134,190,Control,prime1,1-2_circle_squares.png,,1-2_circle_squares.png,Equal,1570,1,NA,NA,
22123587,135,191,Control,prime2,1-2_triangle_hearts.png,,1-2_triangle_hearts.png,Equal,1685.8,1,NA,NA,
22123587,136,192,Control,target,2-2_squares_triangles_D.png,,,Equal,1892.2,NA,NA,1,2
22123587,137,87,Control,prime1,1-2_circle_hearts.png,,1-2_circle_hearts.png,Equal,1800.6,1,NA,NA,
22123587,138,88,Control,prime2,1-2_square_triangles.png,,1-2_square_triangles.png,Equal,1829.1,1,NA,NA,
22123587,139,89,Control,target,2-2_hearts_triangles_C.png,,,Equal,2446.8,NA,NA,0,2
22123587,140,129,Control,prime1,1-2_heart_triangles.png,,1-2_heart_triangles.png,Equal,1387.7,1,NA,NA,
22123587,141,130,Control,prime2,1-3_circle_squares.png,,1-2_circle_squares.png,Equal,79.30000001,0,NA,NA,
22123587,142,131,Control,target,2-2_triangles_circles_C.png,,,Equal,4949,NA,NA,0,1
22123587,143,81,Control,prime1,1-2_square_triangles.png,,1-2_square_triangles.png,Equal,2111.1,1,NA,NA,
22123587,144,82,Control,prime2,1-2_circle_hearts.png,,1-2_circle_hearts.png,Equal,2425.1,1,NA,NA,
22123587,145,83,Control,target,2-2_hearts_circles_D.png,,,Equal,12169.2,NA,NA,1,2
22123587,146,187,Control,prime1,1-2_triangle_hearts.png,,1-2_triangle_hearts.png,Different,2672.9,1,NA,NA,
22123587,147,188,Control,prime2,1-2_circle_squares.png,,1-2_circle_squares.png,Different,2108.8,1,NA,NA,
22123587,148,189,Control,target,2-3_squares_triangles_D.png,,,Different,4748.6,NA,NA,1,2
22123587,149,132,Control,prime1,1-2_square_triangles.png,,1-2_square_triangles.png,Different,1635.2,1,NA,NA,
22123587,150,133,Control,prime2,1-2_heart_circles.png,,1-2_heart_circles.png,Different,9323.2,1,NA,NA,
22123587,151,134,Control,target,2-3_squares_triangles_C.png,,,Different,1616.2,NA,NA,0,2
22123587,152,97,Control,prime1,1-2_triangle_hearts.png,,1-2_triangle_hearts.png,Different,2434.5,1,NA,NA,
22123587,153,98,Control,prime2,1-2_circle_squares.png,,1-2_circle_squares.png,Different,4283.7,1,NA,NA,
22123587,154,99,Control,target,2-3_circles_squares_C.png,,,Different,4003,NA,NA,0,2
22123587,155,182,Control,prime1,1-2_triangle_hearts.png,,1-2_triangle_hearts.png,Different,1993.9,1,NA,NA,
22123587,156,183,Control,prime2,1-2_circle_squares.png,,1-2_circle_squares.png,Different,6654.8,1,NA,NA,
22123587,157,184,Control,target,2-3_circles_triangles_D.png,,,Different,3865.8,NA,NA,1,2
22123587,158,71,Control,prime1,1-3_circle_hearts.png,,1-3_circle_hearts.png,Different,2265.7,1,NA,NA,
22123587,159,72,Control,prime2,1-3_triangle_squares.png,,1-3_triangle_squares.png,Different,1851.3,1,NA,NA,
22123587,160,73,Control,target,2-2_circles_hearts_D.png,,,Different,2071.1,NA,NA,1,2
22123587,161,199,Control,prime1,1-3_heart_triangles.png,,1-3_heart_triangles.png,Different,1266.8,1,NA,NA,
22123587,162,200,Control,prime2,1-3_circle_squares.png,,1-3_circle_squares.png,Different,1575.9,1,NA,NA,
22123587,163,201,Control,target,2-2_triangles_circles_C.png,,,Different,7744.9,NA,NA,0,2
22123587,164,63,Control,prime1,1-3_triangle_hearts.png,,1-3_triangle_hearts.png,Different,2406.8,1,NA,NA,
22123587,165,64,Control,prime2,1-3_circle_squares.png,,1-3_circle_squares.png,Different,1445.3,1,NA,NA,
22123587,166,65,Control,target,2-2_hearts_circles_C.png,,,Different,1365.4,NA,NA,0,2
22123587,167,176,Control,prime1,1-3_circle_squares.png,,1-3_circle_squares.png,Different,1300.7,1,NA,NA,
22123587,168,177,Control,prime2,1-3_heart_triangles.png,,1-3_heart_triangles.png,Different,1894.7,1,NA,NA,
22123587,169,178,Control,target,2-2_triangles_hearts_D.png,,,Different,2570.9,NA,NA,1,2
22123587,170,78,Control,prime1,1-3_circle_triangles.png,,1-3_circle_triangles.png,Equal,1549.5,1,NA,NA,
22123587,171,79,Control,prime2,1-3_heart_squares.png,,1-3_heart_squares.png,Equal,2187.9,1,NA,NA,
22123587,172,80,Control,target,2-3_squares_triangles_D.png,,,Equal,2032.2,NA,NA,1,2
22123587,173,57,Control,prime1,1-3_square_circles.png,,1-3_square_circles.png,Equal,2623.5,1,NA,NA,
22123587,174,58,Control,prime2,1-3_triangle_hearts.png,,1-3_triangle_hearts.png,Equal,3695.5,1,NA,NA,
22123587,175,59,Control,target,2-3_hearts_circles_C.png,,,Equal,8999.1,NA,NA,0,2
22123587,176,139,Control,prime1,1-3_square_triangles.png,,1-3_square_triangles.png,Equal,2122.6,1,NA,NA,
22123587,177,140,Control,prime2,1-3_circle_hearts.png,,1-3_circle_hearts.png,Equal,9161.5,1,NA,NA,
22123587,178,141,Control,target,2-3_circles_hearts_D.png,,,Equal,1822.3,NA,NA,1,2
22123587,179,193,Control,prime1,1-3_heart_triangles.png,,1-3_heart_triangles.png,Equal,1439.5,1,NA,NA,
22123587,180,194,Control,prime2,1-3_square_circles.png,,1-3_square_circles.png,Equal,2023.1,1,NA,NA,
22123587,181,195,Control,target,2-3_circles_squares_C.png,,,Equal,3679.2,NA,NA,0,2
22123587,182,113,Cumulative,filler,2-2_circles_triangles_C.png,2-2_circles_triangles_C.png,,,2703.1,NA,1,NA,
22123587,183,35,Cumulative,filler,2-2_hearts_squares_C.png,2-2_hearts_squares_C.png,,,4353.4,NA,1,NA,
22123587,184,121,Cumulative,filler,2-2_squares_hearts_C.png,2-2_squares_hearts_C.png,,,1727.9,NA,1,NA,
22123587,185,213,Cumulative,filler,2-2_squares_hearts_C.png,2-2_squares_hearts_C.png,,,4869.2,NA,1,NA,
22123587,186,52,Cumulative,filler,2-2_circles_hearts_C.png,2-2_circles_hearts_C.png,,,2558.3,NA,1,NA,
22123587,187,69,Cumulative,filler,2-2_circles_squares_C.png,2-2_circles_squares_C.png,,,3076.3,NA,1,NA,
22123587,188,120,Cumulative,filler,2-2_hearts_triangles_C.png,2-2_hearts_triangles_C.png,,,1585,NA,1,NA,
22123587,189,179,Cumulative,filler,2-2_squares_circles_C.png,2-2_squares_circles_C.png,,,1911.9,NA,1,NA,
22123587,190,43,Cumulative,filler,2-2_squares_triangles_C.png,2-2_squares_triangles_C.png,,,5424.7,NA,1,NA,
22123587,191,125,Cumulative,filler,2-2_triangles_hearts_C.png,2-2_triangles_hearts_C.png,,,9242.6,NA,1,NA,
22123587,192,167,Cumulative,filler,2-2_circles_triangles_C.png,2-2_circles_triangles_C.png,,,31746.7,NA,1,NA,
22123587,193,33,Cumulative,filler,2-2_circles_triangles_C.png,2-2_circles_triangles_C.png,,,8254.3,NA,1,NA,
22123587,194,36,Cumulative,filler,2-3_hearts_triangles_C.png,2-3_hearts_triangles_C.png,,,5441.5,NA,1,NA,
22123587,195,117,Cumulative,filler,2-3_triangles_hearts_C.png,2-3_triangles_hearts_C.png,,,3773.6,NA,1,NA,
22123587,196,90,Cumulative,filler,2-3_squares_hearts_C.png,2-3_squares_hearts_C.png,,,1982.4,NA,1,NA,
22123587,197,185,Cumulative,filler,2-3_hearts_squares_C.png,2-3_hearts_squares_C.png,,,2208.9,NA,1,NA,
22123587,198,209,Cumulative,filler,2-3_squares_triangles_C.png,2-3_squares_triangles_C.png,,,1973.9,NA,1,NA,
22123587,199,70,Cumulative,filler,2-3_squares_hearts_C.png,2-3_squares_hearts_C.png,,,2049,NA,1,NA,
22123587,200,34,Cumulative,filler,2-3_circles_triangles_C.png,2-3_circles_triangles_C.png,,,2870.9,NA,1,NA,
22123587,201,202,Cumulative,filler,2-3_circles_hearts_C.png,2-3_circles_hearts_C.png,,,1486.4,NA,1,NA,
22123587,202,96,Cumulative,filler,2-3_hearts_triangles_C.png,2-3_hearts_triangles_C.png,,,1674.5,NA,1,NA,
22123587,203,92,Cumulative,filler,2-3_circles_triangles_C.png,2-3_circles_triangles_C.png,,,1899.8,NA,1,NA,
22123587,204,50,Cumulative,filler,2-3_circles_triangles_C.png,2-3_circles_triangles_C.png,,,2526.6,NA,1,NA,
22123587,205,175,Cumulative,filler,2-3_triangles_circles_C.png,2-3_triangles_circles_C.png,,,4264.1,NA,1,NA,
22123587,206,42,Distributive,filler,2-2_triangles_circles_D.png,2-2_triangles_circles_D.png,,,2572,NA,1,NA,
22123587,207,138,Distributive,filler,2-2_squares_triangles_D.png,2-2_squares_triangles_D.png,,,10897.9,NA,1,NA,
22123587,208,180,Distributive,filler,2-2_triangles_squares_D.png,2-2_triangles_squares_D.png,,,3363.9,NA,1,NA,
22123587,209,181,Distributive,filler,2-2_hearts_circles_D.png,2-2_hearts_circles_D.png,,,1499.8,NA,1,NA,
22123587,210,207,Distributive,filler,2-3_squares_hearts_C.png,2-2_squares_hearts_D.png,,,1868.6,NA,0,NA,
22123587,211,174,Distributive,filler,2-3_hearts_triangles_C.png,2-2_hearts_triangles_D.png,,,2193.3,NA,0,NA,
22123587,212,224,Distributive,filler,2-2_circles_triangles_D.png,2-2_circles_triangles_D.png,,,1549.7,NA,1,NA,
22123587,213,153,Distributive,filler,2-2_hearts_triangles_D.png,2-2_hearts_triangles_D.png,,,11307,NA,1,NA,
22123587,214,206,Distributive,filler,2-2_hearts_squares_D.png,2-2_hearts_squares_D.png,,,1485.4,NA,1,NA,
22123587,215,51,Distributive,filler,2-2_squares_triangles_D.png,2-2_squares_triangles_D.png,,,3183.9,NA,1,NA,
22123587,216,74,Distributive,filler,2-2_squares_hearts_D.png,2-2_squares_hearts_D.png,,,27336.9,NA,1,NA,
22123587,217,160,Distributive,filler,2-2_triangles_circles_D.png,2-2_triangles_circles_D.png,,,1456.4,NA,1,NA,
22123587,218,41,Distributive,filler,2-3_triangles_hearts_D.png,2-3_triangles_hearts_D.png,,,2708.8,NA,1,NA,
22123587,219,149,Distributive,filler,2-3_hearts_triangles_D.png,2-3_hearts_triangles_D.png,,,10165.8,NA,1,NA,
22123587,220,40,Distributive,filler,2-3_hearts_triangles_D.png,2-3_hearts_triangles_D.png,,,3017.8,NA,1,NA,
22123587,221,109,Distributive,filler,2-3_circles_hearts_D.png,2-3_circles_hearts_D.png,,,2548.5,NA,1,NA,
22123587,222,214,Distributive,filler,2-3_squares_triangles_D.png,2-3_squares_triangles_D.png,,,3426.7,NA,1,NA,
22123587,223,118,Distributive,filler,2-3_circles_hearts_D.png,2-3_circles_hearts_D.png,,,2609.7,NA,1,NA,
22123587,224,119,Distributive,filler,2-3_squares_triangles_D.png,2-3_squares_triangles_D.png,,,2781.8,NA,1,NA,
22123587,225,53,Distributive,filler,2-3_hearts_circles_D.png,2-3_hearts_circles_D.png,,,2177,NA,1,NA,
22123587,226,208,Distributive,filler,2-3_hearts_triangles_D.png,2-3_hearts_triangles_D.png,,,2085.8,NA,1,NA,
22123587,227,91,Distributive,filler,2-3_squares_hearts_D.png,2-3_squares_hearts_D.png,,,2014.7,NA,1,NA,
22123587,228,186,Distributive,filler,2-3_triangles_circles_D.png,2-3_triangles_circles_D.png,,,2941.6,NA,1,NA,
22123587,229,148,Distributive,filler,2-2_squares_hearts_C.png,2-3_squares_hearts_D.png,,,1006.1,NA,0,NA,
22123606,5,27,Baseline,target,2-2_circles_hearts_D.png,,,,9563,NA,NA,1,
22123606,6,6,Baseline,target,2-2_triangles_squares_D.png,,,,6144,NA,NA,1,
22123606,7,28,Baseline,target,2-2_squares_hearts_D.png,,,,3339,NA,NA,1,
22123606,8,23,Baseline,target,2-2_hearts_triangles_D.png,,,,3044,NA,NA,1,
22123606,9,29,Baseline,target,2-2_hearts_squares_D.png,,,,8558,NA,NA,1,
22123606,10,22,Baseline,target,2-2_circles_triangles_D.png,,,,5640,NA,NA,1,
22123606,11,25,Baseline,target,2-2_hearts_squares_D.png,,,,3069,NA,NA,1,
22123606,12,1,Baseline,target,2-2_circles_squares_D.png,,,,10037,NA,NA,1,
22123606,13,30,Baseline,target,2-3_squares_circles_D.png,,,,6004,NA,NA,1,
22123606,14,24,Baseline,target,2-3_circles_squares_D.png,,,,3234,NA,NA,1,
22123606,15,4,Baseline,target,2-3_hearts_triangles_D.png,,,,8107,NA,NA,1,
22123606,16,32,Baseline,target,2-3_squares_triangles_D.png,,,,2444,NA,NA,1,
22123606,17,31,Baseline,target,2-3_hearts_squares_D.png,,,,5566,NA,NA,1,
22123606,18,14,Baseline,target,2-3_squares_triangles_D.png,,,,3767,NA,NA,1,
22123606,19,5,Baseline,target,2-3_squares_triangles_D.png,,,,8765,NA,NA,1,
22123606,20,17,Baseline,target,2-3_triangles_circles_D.png,,,,3528,NA,NA,1,
22123606,21,7,Baseline,filler,1-2_circle_squares.png,1-2_circle_squares.png,,,2605,NA,1,NA,
22123606,22,9,Baseline,filler,1-2_circle_hearts.png,1-2_circle_hearts.png,,,2890,NA,1,NA,
22123606,23,10,Baseline,filler,1-2_heart_triangles.png,1-2_heart_triangles.png,,,4387,NA,1,NA,
22123606,24,18,Baseline,filler,1-2_square_triangles.png,1-2_square_triangles.png,,,4810,NA,1,NA,
22123606,25,26,Baseline,filler,1-2_triangle_hearts.png,1-2_triangle_hearts.png,,,2966,NA,1,NA,
22123606,26,2,Baseline,filler,1-2_square_triangles.png,1-2_square_triangles.png,,,4533,NA,1,NA,
22123606,27,8,Baseline,filler,1-2_triangle_hearts.png,1-2_triangle_hearts.png,,,2843,NA,1,NA,
22123606,28,12,Baseline,filler,1-2_triangle_hearts.png,1-2_triangle_hearts.png,,,2910,NA,1,NA,
22123606,29,21,Baseline,filler,1-3_circle_hearts.png,1-3_circle_hearts.png,,,3221,NA,1,NA,
22123606,30,20,Baseline,filler,1-3_heart_triangles.png,1-3_heart_triangles.png,,,3209,NA,1,NA,
22123606,31,3,Baseline,filler,1-3_triangle_hearts.png,1-3_triangle_hearts.png,,,6422,NA,1,NA,
22123606,32,19,Baseline,filler,1-3_circle_squares.png,1-3_circle_squares.png,,,2545,NA,1,NA,
22123606,33,15,Baseline,filler,1-3_circle_triangles.png,1-3_circle_triangles.png,,,2784,NA,1,NA,
22123606,34,13,Baseline,filler,1-3_square_circles.png,1-3_square_circles.png,,,2919,NA,1,NA,
22123606,35,11,Baseline,filler,1-3_square_triangles.png,1-3_square_triangles.png,,,2857,NA,1,NA,
22123606,36,16,Baseline,filler,1-3_heart_triangles.png,1-3_heart_triangles.png,,,2989,NA,1,NA,
22123606,38,152,Cumulative,prime1,2-2_hearts_triangles_C.png,,2-2_hearts_triangles_C.png,Equal,7205,1,NA,NA,
22123606,39,153,Cumulative,prime2,2-2_circles_squares_C.png,,2-2_circles_squares_C.png,Equal,3101,1,NA,NA,
22123606,40,154,Cumulative,target,2-2_circles_hearts_D.png,,,Equal,8357,NA,NA,1,2
22123606,41,81,Cumulative,prime1,2-2_triangles_hearts_C.png,,2-2_triangles_hearts_C.png,Equal,6760,1,NA,NA,
22123606,42,82,Cumulative,prime2,2-2_squares_circles_C.png,,2-2_squares_circles_C.png,Equal,7349,1,NA,NA,
22123606,43,83,Cumulative,target,2-2_hearts_squares_D.png,,,Equal,2189,NA,NA,1,2
22123606,44,119,Cumulative,prime1,2-2_squares_circles_C.png,,2-2_squares_circles_C.png,Equal,4490,1,NA,NA,
22123606,45,120,Cumulative,prime2,2-2_hearts_triangles_C.png,,2-2_hearts_triangles_C.png,Equal,3946,1,NA,NA,
22123606,46,121,Cumulative,target,2-2_triangles_squares_D.png,,,Equal,3038,NA,NA,1,2
22123606,47,174,Cumulative,prime1,2-2_squares_circles_C.png,,2-2_squares_circles_C.png,Equal,3939,1,NA,NA,
22123606,48,175,Cumulative,prime2,2-2_triangles_hearts_C.png,,2-2_triangles_hearts_C.png,Equal,6026,1,NA,NA,
22123606,49,176,Cumulative,target,2-2_circles_triangles_D.png,,,Equal,2101,NA,NA,1,2
22123606,50,169,Cumulative,prime1,2-2_hearts_circles_C.png,,2-2_hearts_circles_C.png,Different,4718,1,NA,NA,
22123606,51,170,Cumulative,prime2,2-2_triangles_squares_C.png,,2-2_triangles_squares_C.png,Different,3282,1,NA,NA,
22123606,52,171,Cumulative,target,2-3_squares_circles_D.png,,,Different,2683,NA,NA,1,2
22123606,53,88,Cumulative,prime1,2-2_squares_triangles_C.png,,2-2_squares_triangles_C.png,Different,4563,1,NA,NA,
22123606,54,89,Cumulative,prime2,2-2_hearts_circles_C.png,,2-2_hearts_circles_C.png,Different,4674,1,NA,NA,
22123606,55,90,Cumulative,target,2-3_hearts_squares_D.png,,,Different,2101,NA,NA,1,2
22123606,56,208,Cumulative,prime1,2-2_hearts_circles_C.png,,2-2_hearts_circles_C.png,Different,3523,1,NA,NA,
22123606,57,209,Cumulative,prime2,2-2_triangles_squares_C.png,,2-2_triangles_squares_C.png,Different,4627,1,NA,NA,
22123606,58,210,Cumulative,target,2-3_circles_squares_D.png,,,Different,2203,NA,NA,1,2
22123606,59,204,Cumulative,prime1,2-2_circles_hearts_C.png,,2-2_circles_hearts_C.png,Different,4231,1,NA,NA,
22123606,60,205,Cumulative,prime2,2-2_squares_triangles_C.png,,2-2_squares_triangles_C.png,Different,3277,1,NA,NA,
22123606,61,206,Cumulative,target,2-3_squares_triangles_D.png,,,Different,2212,NA,NA,1,2
22123606,62,54,Cumulative,prime1,2-3_hearts_circles_C.png,,2-3_hearts_circles_C.png,Different,6660,1,NA,NA,
22123606,63,55,Cumulative,prime2,2-3_squares_triangles_C.png,,2-3_squares_triangles_C.png,Different,5072,1,NA,NA,
22123606,64,56,Cumulative,target,2-2_squares_hearts_D.png,,,Different,4426,NA,NA,1,2
22123606,65,219,Cumulative,prime1,2-3_hearts_circles_C.png,,2-3_hearts_circles_C.png,Different,3899,1,NA,NA,
22123606,66,220,Cumulative,prime2,2-3_triangles_squares_C.png,,2-3_triangles_squares_C.png,Different,2606,1,NA,NA,
22123606,67,221,Cumulative,target,2-2_hearts_squares_D.png,,,Different,2186,NA,NA,1,2
22123606,68,58,Cumulative,prime1,2-3_squares_circles_C.png,,2-3_squares_circles_C.png,Different,3220,1,NA,NA,
22123606,69,59,Cumulative,prime2,2-3_hearts_triangles_C.png,,2-3_hearts_triangles_C.png,Different,5184,1,NA,NA,
22123606,70,60,Cumulative,target,2-2_hearts_triangles_D.png,,,Different,2659,NA,NA,1,2
22123606,71,191,Cumulative,prime1,2-3_hearts_squares_C.png,,2-3_hearts_squares_C.png,Different,3219,1,NA,NA,
22123606,72,192,Cumulative,prime2,2-3_circles_triangles_C.png,,2-3_circles_triangles_C.png,Different,3600,1,NA,NA,
22123606,73,193,Cumulative,target,2-2_circles_squares_D.png,,,Different,3007,NA,NA,1,2
22123606,74,94,Cumulative,prime1,2-3_triangles_circles_C.png,,2-3_triangles_circles_C.png,Equal,7252,1,NA,NA,
22123606,75,95,Cumulative,prime2,2-3_hearts_squares_C.png,,2-3_hearts_squares_C.png,Equal,3379,1,NA,NA,
22123606,76,96,Cumulative,target,2-3_hearts_triangles_D.png,,,Equal,4446,NA,NA,1,2
22123606,77,33,Cumulative,prime1,2-3_squares_hearts_C.png,,2-3_squares_hearts_C.png,Equal,8743,1,NA,NA,
22123606,78,34,Cumulative,prime2,2-3_triangles_circles_C.png,,2-3_triangles_circles_C.png,Equal,5866,1,NA,NA,
22123606,79,35,Cumulative,target,2-3_squares_triangles_D.png,,,Equal,4824,NA,NA,1,2
22123606,80,124,Cumulative,prime1,2-3_hearts_circles_C.png,,2-3_hearts_circles_C.png,Equal,3090,1,NA,NA,
22123606,81,125,Cumulative,prime2,2-3_triangles_squares_C.png,,2-3_triangles_squares_C.png,Equal,2764,1,NA,NA,
22123606,82,126,Cumulative,target,2-3_squares_triangles_D.png,,,Equal,2763,NA,NA,1,2
22123606,83,149,Cumulative,prime1,2-3_circles_hearts_C.png,,2-3_circles_hearts_C.png,Equal,5878,1,NA,NA,
22123606,84,150,Cumulative,prime2,2-3_squares_triangles_C.png,,2-3_squares_triangles_C.png,Equal,3968,1,NA,NA,
22123606,85,151,Cumulative,target,2-3_triangles_circles_D.png,,,Equal,3110,NA,NA,1,2
22123606,86,39,Distributive,prime1,2-2_squares_circles_D.png,,2-2_squares_circles_D.png,Equal,7899,1,NA,NA,
22123606,87,40,Distributive,prime2,2-2_hearts_triangles_D.png,,2-2_hearts_triangles_D.png,Equal,3746,1,NA,NA,
22123606,88,41,Distributive,target,2-2_triangles_squares_D.png,,,Equal,4717,NA,NA,1,2
22123606,89,127,Distributive,prime1,2-2_squares_hearts_D.png,,2-2_squares_hearts_D.png,Equal,2260,1,NA,NA,
22123606,90,128,Distributive,prime2,2-2_triangles_circles_D.png,,2-2_triangles_circles_D.png,Equal,3282,1,NA,NA,
22123606,91,129,Distributive,target,2-2_circles_hearts_D.png,,,Equal,2165,NA,NA,1,2
22123606,92,139,Distributive,prime1,2-2_triangles_hearts_D.png,,2-2_triangles_hearts_D.png,Equal,3155,1,NA,NA,
22123606,93,140,Distributive,prime2,2-2_squares_circles_D.png,,2-2_squares_circles_D.png,Equal,2572,1,NA,NA,
22123606,94,141,Distributive,target,2-2_squares_circles_D.png,,,Equal,9677,NA,NA,1,2
22123606,95,214,Distributive,prime1,2-2_triangles_hearts_D.png,,2-2_triangles_hearts_D.png,Equal,2930,1,NA,NA,
22123606,96,215,Distributive,prime2,2-2_circles_squares_D.png,,2-2_circles_squares_D.png,Equal,2400,1,NA,NA,
22123606,97,216,Distributive,target,2-2_squares_circles_D.png,,,Equal,2760,NA,NA,1,2
22123606,98,201,Distributive,prime1,2-2_circles_hearts_D.png,,2-2_circles_hearts_D.png,Different,2048,1,NA,NA,
22123606,99,202,Distributive,prime2,2-2_squares_triangles_D.png,,2-2_squares_triangles_D.png,Different,4096,1,NA,NA,
22123606,100,203,Distributive,target,2-3_triangles_circles_D.png,,,Different,3750,NA,NA,1,2
22123606,101,135,Distributive,prime1,2-2_triangles_squares_D.png,,2-2_triangles_squares_D.png,Different,4929,1,NA,NA,
22123606,102,136,Distributive,prime2,2-2_hearts_circles_D.png,,2-2_hearts_circles_D.png,Different,3010,1,NA,NA,
22123606,103,137,Distributive,target,2-3_circles_triangles_D.png,,,Different,8350,NA,NA,1,2
22123606,104,177,Distributive,prime1,2-2_circles_hearts_D.png,,2-2_circles_hearts_D.png,Different,2408,1,NA,NA,
22123606,105,178,Distributive,prime2,2-2_squares_triangles_D.png,,2-2_squares_triangles_D.png,Different,3091,1,NA,NA,
22123606,106,179,Distributive,target,2-3_squares_circles_D.png,,,Different,2453,NA,NA,1,2
22123606,107,63,Distributive,prime1,2-2_hearts_squares_D.png,,2-2_hearts_squares_D.png,Different,4631,1,NA,NA,
22123606,108,64,Distributive,prime2,2-2_triangles_circles_D.png,,2-2_triangles_circles_D.png,Different,3944,1,NA,NA,
22123606,109,65,Distributive,target,2-3_squares_hearts_D.png,,,Different,6121,NA,NA,1,2
22123606,110,194,Distributive,prime1,2-3_triangles_circles_D.png,,2-3_triangles_circles_D.png,Different,3101,1,NA,NA,
22123606,111,195,Distributive,prime2,2-3_squares_hearts_D.png,,2-3_squares_hearts_D.png,Different,2691,1,NA,NA,
22123606,112,196,Distributive,target,2-2_squares_hearts_D.png,,,Different,2136,NA,NA,1,2
22123606,113,132,Distributive,prime1,2-3_squares_circles_D.png,,2-3_squares_circles_D.png,Different,4648,1,NA,NA,
22123606,114,133,Distributive,prime2,2-3_hearts_triangles_D.png,,2-3_hearts_triangles_D.png,Different,2768,1,NA,NA,
22123606,115,134,Distributive,target,2-2_circles_squares_D.png,,,Different,2604,NA,NA,1,2
22123606,116,222,Distributive,prime1,2-3_triangles_squares_D.png,,2-3_triangles_squares_D.png,Different,2611,1,NA,NA,
22123606,117,223,Distributive,prime2,2-3_hearts_circles_D.png,,2-3_hearts_circles_D.png,Different,2745,1,NA,NA,
22123606,118,224,Distributive,target,2-2_triangles_squares_D.png,,,Different,8082,NA,NA,1,2
22123606,119,85,Distributive,prime1,2-3_triangles_circles_D.png,,2-3_triangles_circles_D.png,Different,2920,1,NA,NA,
22123606,120,86,Distributive,prime2,2-3_squares_hearts_D.png,,2-3_squares_hearts_D.png,Different,2578,1,NA,NA,
22123606,121,87,Distributive,target,2-2_squares_circles_D.png,,,Different,3063,NA,NA,1,2
22123606,122,101,Distributive,prime1,2-3_hearts_circles_D.png,,2-3_hearts_circles_D.png,Equal,2911,1,NA,NA,
22123606,123,102,Distributive,prime2,2-3_triangles_squares_D.png,,2-3_triangles_squares_D.png,Equal,3906,1,NA,NA,
22123606,124,103,Distributive,target,2-3_hearts_circles_D.png,,,Equal,2611,NA,NA,1,2
22123606,125,78,Distributive,prime1,2-3_triangles_circles_D.png,,2-3_triangles_circles_D.png,Equal,2128,1,NA,NA,
22123606,126,79,Distributive,prime2,2-3_squares_hearts_D.png,,2-3_squares_hearts_D.png,Equal,2921,1,NA,NA,
22123606,127,80,Distributive,target,2-3_hearts_triangles_D.png,,,Equal,6151,NA,NA,1,2
22123606,128,155,Distributive,prime1,2-3_hearts_squares_D.png,,2-3_hearts_squares_D.png,Equal,2616,1,NA,NA,
22123606,129,156,Distributive,prime2,2-3_circles_triangles_D.png,,2-3_circles_triangles_D.png,Equal,2946,1,NA,NA,
22123606,130,157,Distributive,target,2-3_triangles_circles_D.png,,,Equal,2479,NA,NA,1,2
22123606,131,72,Distributive,prime1,2-3_hearts_triangles_D.png,,2-3_hearts_triangles_D.png,Equal,3579,1,NA,NA,
22123606,132,73,Distributive,prime2,2-3_circles_squares_D.png,,2-3_circles_squares_D.png,Equal,2493,1,NA,NA,
22123606,133,74,Distributive,target,2-3_squares_hearts_D.png,,,Equal,2946,NA,NA,1,2
22123606,134,43,Control,prime1,1-2_circle_squares.png,,1-2_circle_squares.png,Equal,2458,1,NA,NA,
22123606,135,44,Control,prime2,1-2_triangle_hearts.png,,1-2_triangle_hearts.png,Equal,2541,1,NA,NA,
22123606,136,45,Control,target,2-2_squares_triangles_D.png,,,Equal,3034,NA,NA,1,2
22123606,137,107,Control,prime1,1-2_circle_hearts.png,,1-2_circle_hearts.png,Equal,2880,1,NA,NA,
22123606,138,108,Control,prime2,1-2_square_triangles.png,,1-2_square_triangles.png,Equal,1931,1,NA,NA,
22123606,139,109,Control,target,2-2_hearts_triangles_D.png,,,Equal,3212,NA,NA,1,2
22123606,140,146,Control,prime1,1-2_heart_triangles.png,,1-2_heart_triangles.png,Equal,2122,1,NA,NA,
22123606,141,147,Control,prime2,1-2_circle_squares.png,,1-2_circle_squares.png,Equal,1964,1,NA,NA,
22123606,142,148,Control,target,2-2_triangles_circles_D.png,,,Equal,2887,NA,NA,1,2
22123606,143,104,Control,prime1,1-2_square_triangles.png,,1-2_square_triangles.png,Equal,2343,1,NA,NA,
22123606,144,105,Control,prime2,1-2_circle_hearts.png,,1-2_circle_hearts.png,Equal,1851,1,NA,NA,
22123606,145,106,Control,target,2-2_hearts_circles_D.png,,,Equal,3012,NA,NA,1,2
22123606,146,50,Control,prime1,1-2_triangle_hearts.png,,1-2_triangle_hearts.png,Different,2707,1,NA,NA,
22123606,147,51,Control,prime2,1-2_circle_squares.png,,1-2_circle_squares.png,Different,1859,1,NA,NA,
22123606,148,52,Control,target,2-3_squares_triangles_D.png,,,Different,2632,NA,NA,1,2
22123606,149,186,Control,prime1,1-2_square_triangles.png,,1-2_square_triangles.png,Different,3894,1,NA,NA,
22123606,150,187,Control,prime2,1-2_heart_circles.png,,1-2_heart_circles.png,Different,2533,1,NA,NA,
22123606,151,188,Control,target,2-3_squares_triangles_D.png,,,Different,2455,NA,NA,1,2
22123606,152,166,Control,prime1,1-2_triangle_hearts.png,,1-2_triangle_hearts.png,Different,2760,1,NA,NA,
22123606,153,167,Control,prime2,1-2_circle_squares.png,,1-2_circle_squares.png,Different,2062,1,NA,NA,
22123606,154,168,Control,target,2-3_circles_squares_D.png,,,Different,3241,NA,NA,1,2
22123606,155,47,Control,prime1,1-2_triangle_hearts.png,,1-2_triangle_hearts.png,Different,1836,1,NA,NA,
22123606,156,48,Control,prime2,1-2_circle_squares.png,,1-2_circle_squares.png,Different,2328,1,NA,NA,
22123606,157,49,Control,target,2-3_circles_triangles_D.png,,,Different,5297,NA,NA,1,2
22123606,158,111,Control,prime1,1-3_circle_hearts.png,,1-3_circle_hearts.png,Different,2019,1,NA,NA,
22123606,159,112,Control,prime2,1-3_triangle_squares.png,,1-3_triangle_squares.png,Different,2084,1,NA,NA,
22123606,160,113,Control,target,2-2_circles_hearts_D.png,,,Different,2334,NA,NA,1,2
22123606,161,158,Control,prime1,1-3_heart_triangles.png,,1-3_heart_triangles.png,Different,1990,1,NA,NA,
22123606,162,159,Control,prime2,1-3_circle_squares.png,,1-3_circle_squares.png,Different,1883,1,NA,NA,
22123606,163,160,Control,target,2-2_triangles_circles_D.png,,,Different,2557,NA,NA,1,2
22123606,164,161,Control,prime1,1-3_triangle_hearts.png,,1-3_triangle_hearts.png,Different,2250,1,NA,NA,
22123606,165,162,Control,prime2,1-3_circle_squares.png,,1-3_circle_squares.png,Different,2051,1,NA,NA,
22123606,166,163,Control,target,2-2_hearts_circles_D.png,,,Different,2381,NA,NA,1,2
22123606,167,116,Control,prime1,1-3_circle_squares.png,,1-3_circle_squares.png,Different,1688,1,NA,NA,
22123606,168,117,Control,prime2,1-3_heart_triangles.png,,1-3_heart_triangles.png,Different,2153,1,NA,NA,
22123606,169,118,Control,target,2-2_triangles_hearts_D.png,,,Different,2841,NA,NA,1,2
22123606,170,142,Control,prime1,1-3_circle_triangles.png,,1-3_circle_triangles.png,Equal,2565,1,NA,NA,
22123606,171,143,Control,prime2,1-3_heart_squares.png,,1-3_heart_squares.png,Equal,4297,1,NA,NA,
22123606,172,144,Control,target,2-3_squares_triangles_D.png,,,Equal,2470,NA,NA,1,2
22123606,173,180,Control,prime1,1-3_square_circles.png,,1-3_square_circles.png,Equal,2104,1,NA,NA,
22123606,174,181,Control,prime2,1-3_triangle_hearts.png,,1-3_triangle_hearts.png,Equal,2178,1,NA,NA,
22123606,175,182,Control,target,2-3_hearts_circles_D.png,,,Equal,2309,NA,NA,1,2
22123606,176,97,Control,prime1,1-3_square_triangles.png,,1-3_square_triangles.png,Equal,2543,1,NA,NA,
22123606,177,98,Control,prime2,1-3_circle_hearts.png,,1-3_circle_hearts.png,Equal,2411,1,NA,NA,
22123606,178,99,Control,target,2-3_circles_hearts_D.png,,,Equal,3624,NA,NA,1,2
22123606,179,183,Control,prime1,1-3_heart_triangles.png,,1-3_heart_triangles.png,Equal,3099,1,NA,NA,
22123606,180,184,Control,prime2,1-3_square_circles.png,,1-3_square_circles.png,Equal,2152,1,NA,NA,
22123606,181,185,Control,target,2-3_circles_squares_D.png,,,Equal,6657,NA,NA,1,2
22123606,182,190,Cumulative,filler,2-2_circles_triangles_C.png,2-2_circles_triangles_C.png,,,4217,NA,1,NA,
22123606,183,77,Cumulative,filler,2-2_hearts_squares_C.png,2-2_hearts_squares_C.png,,,10796,NA,1,NA,
22123606,184,53,Cumulative,filler,2-2_squares_hearts_C.png,2-2_squares_hearts_C.png,,,8447,NA,1,NA,
22123606,185,62,Cumulative,filler,2-2_squares_hearts_C.png,2-2_squares_hearts_C.png,,,3294,NA,1,NA,
22123606,186,92,Cumulative,filler,2-2_circles_hearts_C.png,2-2_circles_hearts_C.png,,,3638,NA,1,NA,
22123606,187,66,Cumulative,filler,2-2_circles_squares_C.png,2-2_circles_squares_C.png,,,9080,NA,1,NA,
22123606,188,61,Cumulative,filler,2-2_hearts_triangles_C.png,2-2_hearts_triangles_C.png,,,9710,NA,1,NA,
22123606,189,69,Cumulative,filler,2-2_squares_circles_C.png,2-2_squares_circles_C.png,,,3978,NA,1,NA,
22123606,190,145,Cumulative,filler,2-2_squares_triangles_C.png,2-2_squares_triangles_C.png,,,3473,NA,1,NA,
22123606,191,46,Cumulative,filler,2-2_triangles_hearts_C.png,2-2_triangles_hearts_C.png,,,11767,NA,1,NA,
22123606,192,93,Cumulative,filler,2-2_circles_triangles_C.png,2-2_circles_triangles_C.png,,,3474,NA,1,NA,
22123606,193,76,Cumulative,filler,2-2_circles_triangles_C.png,2-2_circles_triangles_C.png,,,5245,NA,1,NA,
22123606,194,75,Cumulative,filler,2-3_hearts_triangles_C.png,2-3_hearts_triangles_C.png,,,4696,NA,1,NA,
22123606,195,38,Cumulative,filler,2-3_triangles_hearts_C.png,2-3_triangles_hearts_C.png,,,10315,NA,1,NA,
22123606,196,110,Cumulative,filler,2-3_squares_hearts_C.png,2-3_squares_hearts_C.png,,,4214,NA,1,NA,
22123606,197,130,Cumulative,filler,2-3_hearts_squares_C.png,2-3_hearts_squares_C.png,,,4010,NA,1,NA,
22123606,198,172,Cumulative,filler,2-3_squares_triangles_C.png,2-3_squares_triangles_C.png,,,4124,NA,1,NA,
22123606,199,164,Cumulative,filler,2-3_squares_hearts_C.png,2-3_squares_hearts_C.png,,,3452,NA,1,NA,
22123606,200,207,Cumulative,filler,2-3_circles_triangles_C.png,2-3_circles_triangles_C.png,,,3636,NA,1,NA,
22123606,201,36,Cumulative,filler,2-3_circles_hearts_C.png,2-3_circles_hearts_C.png,,,12014,NA,1,NA,
22123606,202,114,Cumulative,filler,2-3_hearts_triangles_C.png,2-3_hearts_triangles_C.png,,,3486,NA,1,NA,
22123606,203,217,Cumulative,filler,2-3_circles_triangles_C.png,2-3_circles_triangles_C.png,,,2654,NA,1,NA,
22123606,204,67,Cumulative,filler,2-3_circles_triangles_C.png,2-3_circles_triangles_C.png,,,5431,NA,1,NA,
22123606,205,100,Cumulative,filler,2-3_triangles_circles_C.png,2-3_triangles_circles_C.png,,,3738,NA,1,NA,
22123606,206,123,Distributive,filler,2-2_triangles_circles_D.png,2-2_triangles_circles_D.png,,,2933,NA,1,NA,
22123606,207,200,Distributive,filler,2-2_squares_triangles_D.png,2-2_squares_triangles_D.png,,,4181,NA,1,NA,
22123606,208,71,Distributive,filler,2-2_triangles_squares_D.png,2-2_triangles_squares_D.png,,,3545,NA,1,NA,
22123606,209,91,Distributive,filler,2-2_hearts_circles_D.png,2-2_hearts_circles_D.png,,,3557,NA,1,NA,
22123606,210,189,Distributive,filler,2-2_squares_hearts_D.png,2-2_squares_hearts_D.png,,,2953,NA,1,NA,
22123606,211,115,Distributive,filler,2-3_hearts_triangles_C.png,2-2_hearts_triangles_D.png,,,5512,NA,0,NA,
22123606,212,173,Distributive,filler,2-2_circles_triangles_D.png,2-2_circles_triangles_D.png,,,2868,NA,1,NA,
22123606,213,138,Distributive,filler,2-2_hearts_triangles_D.png,2-2_hearts_triangles_D.png,,,4469,NA,1,NA,
22123606,214,131,Distributive,filler,2-2_hearts_squares_D.png,2-2_hearts_squares_D.png,,,3894,NA,1,NA,
22123606,215,199,Distributive,filler,2-2_squares_triangles_D.png,2-2_squares_triangles_D.png,,,3769,NA,1,NA,
22123606,216,197,Distributive,filler,2-2_squares_hearts_D.png,2-2_squares_hearts_D.png,,,3795,NA,1,NA,
22123606,217,70,Distributive,filler,2-2_triangles_circles_D.png,2-2_triangles_circles_D.png,,,4060,NA,1,NA,
22123606,218,84,Distributive,filler,2-3_triangles_hearts_D.png,2-3_triangles_hearts_D.png,,,3006,NA,1,NA,
22123606,219,57,Distributive,filler,2-3_hearts_triangles_D.png,2-3_hearts_triangles_D.png,,,2856,NA,1,NA,
22123606,220,212,Distributive,filler,2-3_hearts_triangles_D.png,2-3_hearts_triangles_D.png,,,4314,NA,1,NA,
22123606,221,218,Distributive,filler,2-3_circles_hearts_D.png,2-3_circles_hearts_D.png,,,2232,NA,1,NA,
22123606,222,68,Distributive,filler,2-3_squares_triangles_D.png,2-3_squares_triangles_D.png,,,4271,NA,1,NA,
22123606,223,122,Distributive,filler,2-3_circles_hearts_D.png,2-3_circles_hearts_D.png,,,2600,NA,1,NA,
22123606,224,213,Distributive,filler,2-3_squares_triangles_D.png,2-3_squares_triangles_D.png,,,2948,NA,1,NA,
22123606,225,211,Distributive,filler,2-3_hearts_circles_D.png,2-3_hearts_circles_D.png,,,2875,NA,1,NA,
22123606,226,198,Distributive,filler,2-3_hearts_triangles_D.png,2-3_hearts_triangles_D.png,,,2917,NA,1,NA,
22123606,227,42,Distributive,filler,2-3_squares_hearts_D.png,2-3_squares_hearts_D.png,,,2819,NA,1,NA,
22123606,228,37,Distributive,filler,2-3_triangles_circles_D.png,2-3_triangles_circles_D.png,,,3223,NA,1,NA,
22123606,229,165,Distributive,filler,2-3_squares_hearts_D.png,2-3_squares_hearts_D.png,,,2869,NA,1,NA,
22123618,5,14,Baseline,target,2-2_circles_hearts_C.png,,,,4137,NA,NA,0,
22123618,6,11,Baseline,target,2-2_triangles_squares_C.png,,,,6626,NA,NA,0,
22123618,7,21,Baseline,target,2-2_squares_hearts_C.png,,,,2373,NA,NA,0,
22123618,8,32,Baseline,target,2-2_hearts_triangles_C.png,,,,5799,NA,NA,0,
22123618,9,22,Baseline,target,2-2_hearts_squares_C.png,,,,3545,NA,NA,0,
22123618,10,13,Baseline,target,2-2_circles_triangles_C.png,,,,2363,NA,NA,0,
22123618,11,12,Baseline,target,2-2_hearts_squares_C.png,,,,2561,NA,NA,0,
22123618,12,23,Baseline,target,2-2_circles_squares_C.png,,,,1991,NA,NA,0,
22123618,13,10,Baseline,target,2-3_squares_circles_C.png,,,,2127,NA,NA,0,
22123618,14,20,Baseline,target,2-3_circles_squares_C.png,,,,2879,NA,NA,0,
22123618,15,2,Baseline,target,2-3_hearts_triangles_D.png,,,,2697,NA,NA,1,
22123618,16,5,Baseline,target,2-3_squares_triangles_C.png,,,,6858,NA,NA,0,
22123618,17,8,Baseline,target,2-3_hearts_squares_C.png,,,,1946,NA,NA,0,
22123618,18,18,Baseline,target,2-3_squares_triangles_C.png,,,,3477,NA,NA,0,
22123618,19,31,Baseline,target,2-3_squares_triangles_C.png,,,,1938,NA,NA,0,
22123618,20,28,Baseline,target,2-3_triangles_circles_C.png,,,,2534,NA,NA,0,
22123618,21,24,Baseline,filler,1-2_circle_squares.png,1-2_circle_squares.png,,,1633,NA,1,NA,
22123618,22,19,Baseline,filler,1-2_circle_hearts.png,1-2_circle_hearts.png,,,1950,NA,1,NA,
22123618,23,30,Baseline,filler,1-2_heart_triangles.png,1-2_heart_triangles.png,,,1675,NA,1,NA,
22123618,24,16,Baseline,filler,1-2_square_triangles.png,1-2_square_triangles.png,,,2486,NA,1,NA,
22123618,25,1,Baseline,filler,1-2_triangle_hearts.png,1-2_triangle_hearts.png,,,1677,NA,1,NA,
22123618,26,6,Baseline,filler,1-2_square_triangles.png,1-2_square_triangles.png,,,4179,NA,1,NA,
22123618,27,4,Baseline,filler,1-2_triangle_hearts.png,1-2_triangle_hearts.png,,,1951,NA,1,NA,
22123618,28,7,Baseline,filler,1-2_triangle_hearts.png,1-2_triangle_hearts.png,,,2258,NA,1,NA,
22123618,29,27,Baseline,filler,1-3_circle_hearts.png,1-3_circle_hearts.png,,,4639,NA,1,NA,
22123618,30,29,Baseline,filler,1-3_heart_triangles.png,1-3_heart_triangles.png,,,1506,NA,1,NA,
22123618,31,25,Baseline,filler,1-3_triangle_hearts.png,1-3_triangle_hearts.png,,,4716,NA,1,NA,
22123618,32,26,Baseline,filler,1-3_circle_squares.png,1-3_circle_squares.png,,,2054,NA,1,NA,
22123618,33,3,Baseline,filler,1-3_circle_triangles.png,1-3_circle_triangles.png,,,2501,NA,1,NA,
22123618,34,17,Baseline,filler,1-3_square_circles.png,1-3_square_circles.png,,,2602,NA,1,NA,
22123618,35,15,Baseline,filler,1-3_square_triangles.png,1-3_square_triangles.png,,,3452,NA,1,NA,
22123618,36,9,Baseline,filler,1-3_heart_triangles.png,1-3_heart_triangles.png,,,3332,NA,1,NA,
22123618,38,162,Cumulative,prime1,2-2_hearts_triangles_C.png,,2-2_hearts_triangles_C.png,Equal,3727,1,NA,NA,
22123618,39,163,Cumulative,prime2,2-2_circles_squares_C.png,,2-2_circles_squares_C.png,Equal,2930,1,NA,NA,
22123618,40,164,Cumulative,target,2-2_circles_hearts_C.png,,,Equal,1736,NA,NA,0,2
22123618,41,136,Cumulative,prime1,2-2_triangles_hearts_C.png,,2-2_triangles_hearts_C.png,Equal,6105,1,NA,NA,
22123618,42,137,Cumulative,prime2,2-2_squares_circles_C.png,,2-2_squares_circles_C.png,Equal,1689,1,NA,NA,
22123618,43,138,Cumulative,target,2-2_hearts_squares_C.png,,,Equal,1833,NA,NA,0,2
22123618,44,123,Cumulative,prime1,2-2_squares_circles_C.png,,2-2_squares_circles_C.png,Equal,2886,1,NA,NA,
22123618,45,124,Cumulative,prime2,2-2_hearts_triangles_C.png,,2-2_hearts_triangles_C.png,Equal,1593,1,NA,NA,
22123618,46,125,Cumulative,target,2-2_triangles_squares_C.png,,,Equal,3134,NA,NA,0,2
22123618,47,218,Cumulative,prime1,2-2_squares_circles_C.png,,2-2_squares_circles_C.png,Equal,2472,1,NA,NA,
22123618,48,219,Cumulative,prime2,2-2_triangles_hearts_C.png,,2-2_triangles_hearts_C.png,Equal,2850,1,NA,NA,
22123618,49,220,Cumulative,target,2-2_circles_triangles_C.png,,,Equal,1848,NA,NA,0,2
22123618,50,91,Cumulative,prime1,2-2_hearts_circles_C.png,,2-2_hearts_circles_C.png,Different,2089,1,NA,NA,
22123618,51,92,Cumulative,prime2,2-2_triangles_squares_C.png,,2-2_triangles_squares_C.png,Different,2059,1,NA,NA,
22123618,52,93,Cumulative,target,2-3_squares_circles_C.png,,,Different,2045,NA,NA,0,2
22123618,53,132,Cumulative,prime1,2-2_squares_triangles_C.png,,2-2_squares_triangles_C.png,Different,2356,1,NA,NA,
22123618,54,133,Cumulative,prime2,2-2_hearts_circles_C.png,,2-2_hearts_circles_C.png,Different,2474,1,NA,NA,
22123618,55,134,Cumulative,target,2-3_hearts_squares_C.png,,,Different,1760,NA,NA,0,2
22123618,56,178,Cumulative,prime1,2-2_hearts_circles_C.png,,2-2_hearts_circles_C.png,Different,2216,1,NA,NA,
22123618,57,179,Cumulative,prime2,2-2_triangles_squares_C.png,,2-2_triangles_squares_C.png,Different,2865,1,NA,NA,
22123618,58,180,Cumulative,target,2-3_circles_squares_C.png,,,Different,3481,NA,NA,0,2
22123618,59,52,Cumulative,prime1,2-2_circles_hearts_C.png,,2-2_circles_hearts_C.png,Different,3563,1,NA,NA,
22123618,60,53,Cumulative,prime2,2-2_squares_triangles_C.png,,2-2_squares_triangles_C.png,Different,2775,1,NA,NA,
22123618,61,54,Cumulative,target,2-3_squares_triangles_C.png,,,Different,3779,NA,NA,0,2
22123618,62,102,Cumulative,prime1,2-3_hearts_circles_C.png,,2-3_hearts_circles_C.png,Different,2313,1,NA,NA,
22123618,63,103,Cumulative,prime2,2-3_squares_triangles_C.png,,2-3_squares_triangles_C.png,Different,5588,1,NA,NA,
22123618,64,104,Cumulative,target,2-2_squares_hearts_C.png,,,Different,1881,NA,NA,0,2
22123618,65,156,Cumulative,prime1,2-3_hearts_circles_C.png,,2-3_hearts_circles_C.png,Different,5021,1,NA,NA,
22123618,66,157,Cumulative,prime2,2-3_triangles_squares_C.png,,2-3_triangles_squares_C.png,Different,2453,1,NA,NA,
22123618,67,158,Cumulative,target,2-2_hearts_squares_C.png,,,Different,3518,NA,NA,0,2
22123618,68,49,Cumulative,prime1,2-3_squares_circles_C.png,,2-3_squares_circles_C.png,Different,3943,1,NA,NA,
22123618,69,50,Cumulative,prime2,2-3_hearts_triangles_C.png,,2-3_hearts_triangles_C.png,Different,2770,1,NA,NA,
22123618,70,51,Cumulative,target,2-2_hearts_triangles_C.png,,,Different,6962,NA,NA,0,2
22123618,71,59,Cumulative,prime1,2-3_hearts_squares_C.png,,2-3_hearts_squares_C.png,Different,26297,1,NA,NA,
22123618,72,60,Cumulative,prime2,2-3_circles_triangles_C.png,,2-3_circles_triangles_C.png,Different,2384,1,NA,NA,
22123618,73,61,Cumulative,target,2-2_circles_squares_C.png,,,Different,1817,NA,NA,0,2
22123618,74,105,Cumulative,prime1,2-3_triangles_circles_C.png,,2-3_triangles_circles_C.png,Equal,2645,1,NA,NA,
22123618,75,106,Cumulative,prime2,2-3_hearts_squares_C.png,,2-3_hearts_squares_C.png,Equal,1330,1,NA,NA,
22123618,76,107,Cumulative,target,2-3_hearts_triangles_C.png,,,Equal,2552,NA,NA,0,2
22123618,77,214,Cumulative,prime1,2-3_squares_hearts_C.png,,2-3_squares_hearts_C.png,Equal,2051,1,NA,NA,
22123618,78,215,Cumulative,prime2,2-3_triangles_circles_C.png,,2-3_triangles_circles_C.png,Equal,4964,1,NA,NA,
22123618,79,216,Cumulative,target,2-3_squares_triangles_C.png,,,Equal,2991,NA,NA,0,2
22123618,80,211,Cumulative,prime1,2-3_hearts_circles_C.png,,2-3_hearts_circles_C.png,Equal,2168,1,NA,NA,
22123618,81,212,Cumulative,prime2,2-3_triangles_squares_C.png,,2-3_triangles_squares_C.png,Equal,3550,1,NA,NA,
22123618,82,213,Cumulative,target,2-3_squares_triangles_C.png,,,Equal,3557,NA,NA,0,2
22123618,83,197,Cumulative,prime1,2-3_circles_hearts_C.png,,2-3_circles_hearts_C.png,Equal,3172,1,NA,NA,
22123618,84,198,Cumulative,prime2,2-3_squares_triangles_C.png,,2-3_squares_triangles_C.png,Equal,2570,1,NA,NA,
22123618,85,199,Cumulative,target,2-3_triangles_circles_C.png,,,Equal,1684,NA,NA,0,2
22123618,86,33,Distributive,prime1,2-2_squares_circles_D.png,,2-2_squares_circles_D.png,Equal,7059,1,NA,NA,
22123618,87,34,Distributive,prime2,2-2_hearts_triangles_D.png,,2-2_hearts_triangles_D.png,Equal,4059,1,NA,NA,
22123618,88,35,Distributive,target,2-2_triangles_squares_C.png,,,Equal,2382,NA,NA,0,2
22123618,89,200,Distributive,prime1,2-2_squares_hearts_D.png,,2-2_squares_hearts_D.png,Equal,2477,1,NA,NA,
22123618,90,201,Distributive,prime2,2-2_triangles_circles_D.png,,2-2_triangles_circles_D.png,Equal,2064,1,NA,NA,
22123618,91,202,Distributive,target,2-2_circles_hearts_D.png,,,Equal,2293,NA,NA,1,2
22123618,92,145,Distributive,prime1,2-2_triangles_hearts_D.png,,2-2_triangles_hearts_D.png,Equal,3106,1,NA,NA,
22123618,93,146,Distributive,prime2,2-2_squares_circles_D.png,,2-2_squares_circles_D.png,Equal,2732,1,NA,NA,
22123618,94,147,Distributive,target,2-2_squares_circles_C.png,,,Equal,2383,NA,NA,0,2
22123618,95,222,Distributive,prime1,2-2_triangles_hearts_D.png,,2-2_triangles_hearts_D.png,Equal,2292,1,NA,NA,
22123618,96,223,Distributive,prime2,2-2_circles_squares_D.png,,2-2_circles_squares_D.png,Equal,2070,1,NA,NA,
22123618,97,224,Distributive,target,2-2_squares_circles_C.png,,,Equal,1409,NA,NA,0,2
22123618,98,109,Distributive,prime1,2-2_circles_hearts_D.png,,2-2_circles_hearts_D.png,Different,2748,1,NA,NA,
22123618,99,110,Distributive,prime2,2-2_squares_triangles_D.png,,2-2_squares_triangles_D.png,Different,3663,1,NA,NA,
22123618,100,111,Distributive,target,2-3_triangles_circles_C.png,,,Different,1965,NA,NA,0,2
22123618,101,127,Distributive,prime1,2-2_triangles_squares_D.png,,2-2_triangles_squares_D.png,Different,1574,1,NA,NA,
22123618,102,128,Distributive,prime2,2-2_hearts_circles_D.png,,2-2_hearts_circles_D.png,Different,1618,1,NA,NA,
22123618,103,129,Distributive,target,2-3_circles_triangles_C.png,,,Different,2443,NA,NA,0,2
22123618,104,41,Distributive,prime1,2-2_circles_hearts_D.png,,2-2_circles_hearts_D.png,Different,3365,1,NA,NA,
22123618,105,42,Distributive,prime2,2-2_squares_triangles_D.png,,2-2_squares_triangles_D.png,Different,2461,1,NA,NA,
22123618,106,43,Distributive,target,2-3_squares_circles_C.png,,,Different,3221,NA,NA,0,2
22123618,107,206,Distributive,prime1,2-2_hearts_squares_D.png,,2-2_hearts_squares_D.png,Different,1600,1,NA,NA,
22123618,108,207,Distributive,prime2,2-2_triangles_circles_D.png,,2-2_triangles_circles_D.png,Different,1295,1,NA,NA,
22123618,109,208,Distributive,target,2-3_squares_hearts_C.png,,,Different,2731,NA,NA,0,2
22123618,110,159,Distributive,prime1,2-2_triangles_circles_D.png,,2-3_triangles_circles_D.png,Different,3781,0,NA,NA,
22123618,111,160,Distributive,prime2,2-3_squares_hearts_D.png,,2-3_squares_hearts_D.png,Different,3475,1,NA,NA,
22123618,112,161,Distributive,target,2-2_squares_hearts_C.png,,,Different,1949,NA,NA,0,1
22123618,113,65,Distributive,prime1,2-3_squares_circles_D.png,,2-3_squares_circles_D.png,Different,2616,1,NA,NA,
22123618,114,66,Distributive,prime2,2-3_hearts_triangles_D.png,,2-3_hearts_triangles_D.png,Different,2686,1,NA,NA,
22123618,115,67,Distributive,target,2-2_circles_squares_C.png,,,Different,2844,NA,NA,0,2
22123618,116,45,Distributive,prime1,2-3_triangles_squares_D.png,,2-3_triangles_squares_D.png,Different,4083,1,NA,NA,
22123618,117,46,Distributive,prime2,2-3_hearts_circles_D.png,,2-3_hearts_circles_D.png,Different,3439,1,NA,NA,
22123618,118,47,Distributive,target,2-2_triangles_squares_C.png,,,Different,1656,NA,NA,0,2
22123618,119,83,Distributive,prime1,2-3_triangles_circles_D.png,,2-3_triangles_circles_D.png,Different,4011,1,NA,NA,
22123618,120,84,Distributive,prime2,2-3_squares_hearts_D.png,,2-3_squares_hearts_D.png,Different,2435,1,NA,NA,
22123618,121,85,Distributive,target,2-2_squares_circles_C.png,,,Different,5499,NA,NA,0,2
22123618,122,56,Distributive,prime1,2-3_hearts_circles_D.png,,2-3_hearts_circles_D.png,Equal,14158,1,NA,NA,
22123618,123,57,Distributive,prime2,2-3_triangles_squares_D.png,,2-3_triangles_squares_D.png,Equal,7546,1,NA,NA,
22123618,124,58,Distributive,target,2-3_hearts_circles_C.png,,,Equal,14558,NA,NA,0,2
22123618,125,192,Distributive,prime1,2-3_triangles_circles_D.png,,2-3_triangles_circles_D.png,Equal,3081,1,NA,NA,
22123618,126,193,Distributive,prime2,2-3_squares_hearts_D.png,,2-3_squares_hearts_D.png,Equal,2396,1,NA,NA,
22123618,127,194,Distributive,target,2-3_hearts_triangles_C.png,,,Equal,2290,NA,NA,0,2
22123618,128,62,Distributive,prime1,2-3_hearts_squares_D.png,,2-3_hearts_squares_D.png,Equal,2380,1,NA,NA,
22123618,129,63,Distributive,prime2,2-3_circles_triangles_D.png,,2-3_circles_triangles_D.png,Equal,3514,1,NA,NA,
22123618,130,64,Distributive,target,2-3_triangles_circles_C.png,,,Equal,2080,NA,NA,0,2
22123618,131,68,Distributive,prime1,2-3_hearts_triangles_D.png,,2-3_hearts_triangles_D.png,Equal,2104,1,NA,NA,
22123618,132,69,Distributive,prime2,2-3_circles_squares_D.png,,2-3_circles_squares_D.png,Equal,13004,1,NA,NA,
22123618,133,70,Distributive,target,2-3_squares_hearts_C.png,,,Equal,3262,NA,NA,0,2
22123618,134,112,Control,prime1,1-2_circle_squares.png,,1-2_circle_squares.png,Equal,1526,1,NA,NA,
22123618,135,113,Control,prime2,1-2_triangle_hearts.png,,1-2_triangle_hearts.png,Equal,1962,1,NA,NA,
22123618,136,114,Control,target,2-2_squares_triangles_C.png,,,Equal,2454,NA,NA,0,2
22123618,137,186,Control,prime1,1-2_circle_hearts.png,,1-2_circle_hearts.png,Equal,1540,1,NA,NA,
22123618,138,187,Control,prime2,1-2_square_triangles.png,,1-2_square_triangles.png,Equal,1503,1,NA,NA,
22123618,139,188,Control,target,2-2_hearts_triangles_C.png,,,Equal,3670,NA,NA,0,2
22123618,140,142,Control,prime1,1-2_heart_triangles.png,,1-2_heart_triangles.png,Equal,2218,1,NA,NA,
22123618,141,143,Control,prime2,1-2_circle_squares.png,,1-2_circle_squares.png,Equal,2058,1,NA,NA,
22123618,142,144,Control,target,2-2_triangles_circles_C.png,,,Equal,2348,NA,NA,0,2
22123618,143,148,Control,prime1,1-2_square_triangles.png,,1-2_square_triangles.png,Equal,1379,1,NA,NA,
22123618,144,149,Control,prime2,1-2_circle_hearts.png,,1-2_circle_hearts.png,Equal,1350,1,NA,NA,
22123618,145,150,Control,target,2-2_hearts_circles_C.png,,,Equal,2840,NA,NA,0,2
22123618,146,189,Control,prime1,1-2_triangle_hearts.png,,1-2_triangle_hearts.png,Different,1547,1,NA,NA,
22123618,147,190,Control,prime2,1-2_circle_squares.png,,1-2_circle_squares.png,Different,1581,1,NA,NA,
22123618,148,191,Control,target,2-3_squares_triangles_C.png,,,Different,1832,NA,NA,0,2
22123618,149,76,Control,prime1,1-2_square_triangles.png,,1-2_square_triangles.png,Different,2711,1,NA,NA,
22123618,150,77,Control,prime2,1-2_heart_circles.png,,1-2_heart_circles.png,Different,2341,1,NA,NA,
22123618,151,78,Control,target,2-3_squares_triangles_C.png,,,Different,1754,NA,NA,0,2
22123618,152,120,Control,prime1,1-2_triangle_hearts.png,,1-2_triangle_hearts.png,Different,1388,1,NA,NA,
22123618,153,121,Control,prime2,1-2_circle_squares.png,,1-2_circle_squares.png,Different,1705,1,NA,NA,
22123618,154,122,Control,target,2-3_circles_squares_C.png,,,Different,2124,NA,NA,0,2
22123618,155,171,Control,prime1,1-2_triangle_hearts.png,,1-2_triangle_hearts.png,Different,1311,1,NA,NA,
22123618,156,172,Control,prime2,1-2_circle_squares.png,,1-2_circle_squares.png,Different,1719,1,NA,NA,
22123618,157,173,Control,target,2-3_circles_triangles_C.png,,,Different,2540,NA,NA,0,2
22123618,158,88,Control,prime1,1-3_circle_hearts.png,,1-3_circle_hearts.png,Different,1314,1,NA,NA,
22123618,159,89,Control,prime2,1-3_triangle_squares.png,,1-3_triangle_squares.png,Different,1486,1,NA,NA,
22123618,160,90,Control,target,2-2_circles_hearts_C.png,,,Different,1784,NA,NA,0,2
22123618,161,73,Control,prime1,1-3_heart_triangles.png,,1-3_heart_triangles.png,Different,2876,1,NA,NA,
22123618,162,74,Control,prime2,1-3_circle_squares.png,,1-3_circle_squares.png,Different,1491,1,NA,NA,
22123618,163,75,Control,target,2-2_triangles_circles_C.png,,,Different,2848,NA,NA,0,2
22123618,164,152,Control,prime1,1-3_triangle_hearts.png,,1-3_triangle_hearts.png,Different,1768,1,NA,NA,
22123618,165,153,Control,prime2,1-3_circle_squares.png,,1-3_circle_squares.png,Different,1786,1,NA,NA,
22123618,166,154,Control,target,2-2_hearts_circles_C.png,,,Different,3878,NA,NA,0,2
22123618,167,36,Control,prime1,1-3_circle_squares.png,,1-3_circle_squares.png,Different,2583,1,NA,NA,
22123618,168,37,Control,prime2,1-3_heart_triangles.png,,1-3_heart_triangles.png,Different,2656,1,NA,NA,
22123618,169,38,Control,target,2-2_triangles_hearts_C.png,,,Different,4506,NA,NA,0,2
22123618,170,167,Control,prime1,1-3_circle_triangles.png,,1-3_circle_triangles.png,Equal,1801,1,NA,NA,
22123618,171,168,Control,prime2,1-3_heart_squares.png,,1-3_heart_squares.png,Equal,1638,1,NA,NA,
22123618,172,169,Control,target,2-3_squares_triangles_C.png,,,Equal,2345,NA,NA,0,2
22123618,173,182,Control,prime1,1-3_square_circles.png,,1-3_square_circles.png,Equal,1304,1,NA,NA,
22123618,174,183,Control,prime2,1-3_triangle_hearts.png,,1-3_triangle_hearts.png,Equal,1958,1,NA,NA,
22123618,175,184,Control,target,2-3_hearts_circles_C.png,,,Equal,1247,NA,NA,0,2
22123618,176,175,Control,prime1,1-3_square_triangles.png,,1-3_square_triangles.png,Equal,1377,1,NA,NA,
22123618,177,176,Control,prime2,1-3_circle_hearts.png,,1-3_circle_hearts.png,Equal,1715,1,NA,NA,
22123618,178,177,Control,target,2-3_circles_hearts_C.png,,,Equal,1933,NA,NA,0,2
22123618,179,94,Control,prime1,1-3_heart_triangles.png,,1-3_heart_triangles.png,Equal,2890,1,NA,NA,
22123618,180,95,Control,prime2,1-3_square_circles.png,,1-3_square_circles.png,Equal,1670,1,NA,NA,
22123618,181,96,Control,target,2-3_circles_squares_C.png,,,Equal,3645,NA,NA,0,2
22123618,182,141,Cumulative,filler,2-2_circles_triangles_C.png,2-2_circles_triangles_C.png,,,1856,NA,1,NA,
22123618,183,126,Cumulative,filler,2-2_hearts_squares_C.png,2-2_hearts_squares_C.png,,,1515,NA,1,NA,
22123618,184,98,Cumulative,filler,2-2_squares_hearts_C.png,2-2_squares_hearts_C.png,,,2628,NA,1,NA,
22123618,185,185,Cumulative,filler,2-2_squares_hearts_C.png,2-2_squares_hearts_C.png,,,3144,NA,1,NA,
22123618,186,135,Cumulative,filler,2-2_circles_hearts_C.png,2-2_circles_hearts_C.png,,,3128,NA,1,NA,
22123618,187,116,Cumulative,filler,2-2_circles_squares_C.png,2-2_circles_squares_C.png,,,2193,NA,1,NA,
22123618,188,39,Cumulative,filler,2-2_hearts_triangles_C.png,2-2_hearts_triangles_C.png,,,3594,NA,1,NA,
22123618,189,115,Cumulative,filler,2-2_squares_circles_C.png,2-2_squares_circles_C.png,,,2658,NA,1,NA,
22123618,190,139,Cumulative,filler,2-2_squares_triangles_C.png,2-2_squares_triangles_C.png,,,1561,NA,1,NA,
22123618,191,155,Cumulative,filler,2-2_triangles_hearts_C.png,2-2_triangles_hearts_C.png,,,3007,NA,1,NA,
22123618,192,210,Cumulative,filler,2-2_circles_triangles_C.png,2-2_circles_triangles_C.png,,,2902,NA,1,NA,
22123618,193,140,Cumulative,filler,2-2_circles_triangles_C.png,2-2_circles_triangles_C.png,,,1257,NA,1,NA,
22123618,194,82,Cumulative,filler,2-3_hearts_triangles_C.png,2-3_hearts_triangles_C.png,,,2399,NA,1,NA,
22123618,195,181,Cumulative,filler,2-3_triangles_hearts_C.png,2-3_triangles_hearts_C.png,,,1951,NA,1,NA,
22123618,196,86,Cumulative,filler,2-3_squares_hearts_C.png,2-3_squares_hearts_C.png,,,10449,NA,1,NA,
22123618,197,97,Cumulative,filler,2-3_hearts_squares_C.png,2-3_hearts_squares_C.png,,,4232,NA,1,NA,
22123618,198,108,Cumulative,filler,2-3_squares_triangles_C.png,2-3_squares_triangles_C.png,,,2688,NA,1,NA,
22123618,199,100,Cumulative,filler,2-3_squares_hearts_C.png,2-3_squares_hearts_C.png,,,2266,NA,1,NA,
22123618,200,151,Cumulative,filler,2-3_circles_triangles_C.png,2-3_circles_triangles_C.png,,,3737,NA,1,NA,
22123618,201,87,Cumulative,filler,2-3_circles_hearts_C.png,2-3_circles_hearts_C.png,,,4531,NA,1,NA,
22123618,202,130,Cumulative,filler,2-3_hearts_triangles_C.png,2-3_hearts_triangles_C.png,,,2632,NA,1,NA,
22123618,203,165,Cumulative,filler,2-3_circles_triangles_C.png,2-3_circles_triangles_C.png,,,2441,NA,1,NA,
22123618,204,170,Cumulative,filler,2-3_circles_triangles_C.png,2-3_circles_triangles_C.png,,,5830,NA,1,NA,
22123618,205,204,Cumulative,filler,2-3_triangles_circles_C.png,2-3_triangles_circles_C.png,,,1698,NA,1,NA,
22123618,206,101,Distributive,filler,2-2_triangles_circles_D.png,2-2_triangles_circles_D.png,,,4305,NA,1,NA,
22123618,207,72,Distributive,filler,2-2_squares_triangles_D.png,2-2_squares_triangles_D.png,,,2889,NA,1,NA,
22123618,208,195,Distributive,filler,2-2_triangles_squares_D.png,2-2_triangles_squares_D.png,,,9359,NA,1,NA,
22123618,209,119,Distributive,filler,2-2_hearts_circles_D.png,2-2_hearts_circles_D.png,,,3781,NA,1,NA,
22123618,210,131,Distributive,filler,2-2_squares_hearts_D.png,2-2_squares_hearts_D.png,,,2885,NA,1,NA,
22123618,211,221,Distributive,filler,2-3_hearts_triangles_C.png,2-2_hearts_triangles_D.png,,,3322,NA,0,NA,
22123618,212,44,Distributive,filler,2-2_circles_triangles_D.png,2-2_circles_triangles_D.png,,,4112,NA,1,NA,
22123618,213,118,Distributive,filler,2-2_hearts_triangles_D.png,2-2_hearts_triangles_D.png,,,2595,NA,1,NA,
22123618,214,81,Distributive,filler,2-2_hearts_squares_D.png,2-2_hearts_squares_D.png,,,2646,NA,1,NA,
22123618,215,209,Distributive,filler,2-3_squares_triangles_C.png,2-2_squares_triangles_D.png,,,3546,NA,0,NA,
22123618,216,55,Distributive,filler,2-2_squares_hearts_D.png,2-2_squares_hearts_D.png,,,35025,NA,1,NA,
22123618,217,196,Distributive,filler,2-2_triangles_circles_D.png,2-2_triangles_circles_D.png,,,4399,NA,1,NA,
22123618,218,99,Distributive,filler,2-3_triangles_hearts_D.png,2-3_triangles_hearts_D.png,,,2419,NA,1,NA,
22123618,219,205,Distributive,filler,2-3_hearts_triangles_D.png,2-3_hearts_triangles_D.png,,,5477,NA,1,NA,
22123618,220,48,Distributive,filler,2-3_hearts_triangles_D.png,2-3_hearts_triangles_D.png,,,2648,NA,1,NA,
22123618,221,174,Distributive,filler,2-3_circles_hearts_D.png,2-3_circles_hearts_D.png,,,2010,NA,1,NA,
22123618,222,79,Distributive,filler,2-3_squares_triangles_D.png,2-3_squares_triangles_D.png,,,3212,NA,1,NA,
22123618,223,217,Distributive,filler,2-3_circles_hearts_D.png,2-3_circles_hearts_D.png,,,2437,NA,1,NA,
22123618,224,40,Distributive,filler,2-3_squares_triangles_D.png,2-3_squares_triangles_D.png,,,4650,NA,1,NA,
22123618,225,80,Distributive,filler,2-3_hearts_circles_D.png,2-3_hearts_circles_D.png,,,1686,NA,1,NA,
22123618,226,166,Distributive,filler,2-3_hearts_triangles_D.png,2-3_hearts_triangles_D.png,,,2537,NA,1,NA,
22123618,227,203,Distributive,filler,2-3_squares_hearts_D.png,2-3_squares_hearts_D.png,,,2235,NA,1,NA,
22123618,228,117,Distributive,filler,2-3_triangles_circles_D.png,2-3_triangles_circles_D.png,,,2320,NA,1,NA,
22123618,229,71,Distributive,filler,2-3_squares_hearts_D.png,2-3_squares_hearts_D.png,,,1624,NA,1,NA,
22123639,5,3,Baseline,target,2-2_circles_hearts_D.png,,,,14637.6,NA,NA,1,
22123639,6,20,Baseline,target,2-2_triangles_squares_C.png,,,,4658.2,NA,NA,0,
22123639,7,6,Baseline,target,2-2_squares_hearts_C.png,,,,11132.7,NA,NA,0,
22123639,8,26,Baseline,target,2-2_hearts_triangles_C.png,,,,3925.1,NA,NA,0,
22123639,9,17,Baseline,target,2-2_hearts_squares_C.png,,,,7946.1,NA,NA,0,
22123639,10,31,Baseline,target,2-2_circles_triangles_C.png,,,,2571.1,NA,NA,0,
22123639,11,7,Baseline,target,2-2_hearts_squares_C.png,,,,3516.9,NA,NA,0,
22123639,12,15,Baseline,target,2-2_circles_squares_C.png,,,,6104.5,NA,NA,0,
22123639,13,9,Baseline,target,2-3_squares_circles_D.png,,,,4265.4,NA,NA,1,
22123639,14,27,Baseline,target,2-3_circles_squares_D.png,,,,5794.2,NA,NA,1,
22123639,15,1,Baseline,target,2-3_hearts_triangles_D.png,,,,4953.5,NA,NA,1,
22123639,16,21,Baseline,target,2-3_squares_triangles_D.png,,,,3711.8,NA,NA,1,
22123639,17,29,Baseline,target,2-3_hearts_squares_D.png,,,,3408.7,NA,NA,1,
22123639,18,23,Baseline,target,2-3_squares_triangles_D.png,,,,5619.8,NA,NA,1,
22123639,19,32,Baseline,target,2-3_squares_triangles_D.png,,,,7235.1,NA,NA,1,
22123639,20,19,Baseline,target,2-3_triangles_circles_D.png,,,,6205.8,NA,NA,1,
22123639,21,13,Baseline,filler,1-2_circle_squares.png,1-2_circle_squares.png,,,2604.9,NA,1,NA,
22123639,22,14,Baseline,filler,1-2_circle_hearts.png,1-2_circle_hearts.png,,,2533.3,NA,1,NA,
22123639,23,12,Baseline,filler,1-2_heart_triangles.png,1-2_heart_triangles.png,,,3269.7,NA,1,NA,
22123639,24,2,Baseline,filler,1-2_square_triangles.png,1-2_square_triangles.png,,,2485.2,NA,1,NA,
22123639,25,16,Baseline,filler,1-2_triangle_hearts.png,1-2_triangle_hearts.png,,,2189.1,NA,1,NA,
22123639,26,18,Baseline,filler,1-2_square_triangles.png,1-2_square_triangles.png,,,2352.8,NA,1,NA,
22123639,27,10,Baseline,filler,1-2_triangle_hearts.png,1-2_triangle_hearts.png,,,2521.2,NA,1,NA,
22123639,28,5,Baseline,filler,1-2_triangle_hearts.png,1-2_triangle_hearts.png,,,3625.3,NA,1,NA,
22123639,29,25,Baseline,filler,1-3_circle_hearts.png,1-3_circle_hearts.png,,,2153.1,NA,1,NA,
22123639,30,30,Baseline,filler,1-3_heart_triangles.png,1-3_heart_triangles.png,,,2243.5,NA,1,NA,
22123639,31,28,Baseline,filler,1-3_triangle_hearts.png,1-3_triangle_hearts.png,,,1855.5,NA,1,NA,
22123639,32,8,Baseline,filler,1-3_circle_squares.png,1-3_circle_squares.png,,,2165.6,NA,1,NA,
22123639,33,11,Baseline,filler,1-3_circle_triangles.png,1-3_circle_triangles.png,,,2365.8,NA,1,NA,
22123639,34,4,Baseline,filler,1-3_square_circles.png,1-3_square_circles.png,,,2495.3,NA,1,NA,
22123639,35,22,Baseline,filler,1-3_square_triangles.png,1-3_square_triangles.png,,,2472.2,NA,1,NA,
22123639,36,24,Baseline,filler,1-3_heart_triangles.png,1-3_heart_triangles.png,,,3926,NA,1,NA,
22123639,38,176,Cumulative,prime1,2-2_hearts_triangles_C.png,,2-2_hearts_triangles_C.png,Equal,2698.2,1,NA,NA,
22123639,39,177,Cumulative,prime2,2-2_circles_squares_C.png,,2-2_circles_squares_C.png,Equal,4867.8,1,NA,NA,
22123639,40,178,Cumulative,target,2-2_circles_hearts_C.png,,,Equal,3272.9,NA,NA,0,2
22123639,41,214,Cumulative,prime1,2-2_triangles_hearts_C.png,,2-2_triangles_hearts_C.png,Equal,5731.9,1,NA,NA,
22123639,42,215,Cumulative,prime2,2-2_squares_circles_C.png,,2-2_squares_circles_C.png,Equal,2901.3,1,NA,NA,
22123639,43,216,Cumulative,target,2-2_hearts_squares_C.png,,,Equal,1828.1,NA,NA,0,2
22123639,44,40,Cumulative,prime1,2-2_squares_circles_C.png,,2-2_squares_circles_C.png,Equal,2531.5,1,NA,NA,
22123639,45,41,Cumulative,prime2,2-2_hearts_triangles_C.png,,2-2_hearts_triangles_C.png,Equal,8642,1,NA,NA,
22123639,46,42,Cumulative,target,2-2_triangles_squares_C.png,,,Equal,8141.8,NA,NA,0,2
22123639,47,217,Cumulative,prime1,2-2_squares_circles_C.png,,2-2_squares_circles_C.png,Equal,1859.1,1,NA,NA,
22123639,48,218,Cumulative,prime2,2-2_triangles_hearts_C.png,,2-2_triangles_hearts_C.png,Equal,2425.7,1,NA,NA,
22123639,49,219,Cumulative,target,2-2_circles_triangles_C.png,,,Equal,2650.5,NA,NA,0,2
22123639,50,34,Cumulative,prime1,2-2_hearts_circles_C.png,,2-2_hearts_circles_C.png,Different,6480.7,1,NA,NA,
22123639,51,35,Cumulative,prime2,2-2_triangles_squares_C.png,,2-2_triangles_squares_C.png,Different,3967.8,1,NA,NA,
22123639,52,36,Cumulative,target,2-3_squares_circles_D.png,,,Different,2264.1,NA,NA,1,2
22123639,53,122,Cumulative,prime1,2-2_squares_triangles_C.png,,2-2_squares_triangles_C.png,Different,3489,1,NA,NA,
22123639,54,123,Cumulative,prime2,2-2_hearts_circles_C.png,,2-2_hearts_circles_C.png,Different,5196.7,1,NA,NA,
22123639,55,124,Cumulative,target,2-3_hearts_squares_C.png,,,Different,2117.9,NA,NA,0,2
22123639,56,97,Cumulative,prime1,2-2_hearts_circles_C.png,,2-2_hearts_circles_C.png,Different,2458.6,1,NA,NA,
22123639,57,98,Cumulative,prime2,2-2_triangles_squares_C.png,,2-2_triangles_squares_C.png,Different,3163.9,1,NA,NA,
22123639,58,99,Cumulative,target,2-3_circles_squares_D.png,,,Different,6293.5,NA,NA,1,2
22123639,59,91,Cumulative,prime1,2-2_circles_hearts_C.png,,2-2_circles_hearts_C.png,Different,3018.5,1,NA,NA,
22123639,60,92,Cumulative,prime2,2-3_squares_triangles_C.png,,2-2_squares_triangles_C.png,Different,2516.8,0,NA,NA,
22123639,61,93,Cumulative,target,2-3_squares_triangles_C.png,,,Different,2377.1,NA,NA,0,1
22123639,62,131,Cumulative,prime1,2-3_hearts_circles_C.png,,2-3_hearts_circles_C.png,Different,3342.8,1,NA,NA,
22123639,63,132,Cumulative,prime2,2-3_squares_triangles_C.png,,2-3_squares_triangles_C.png,Different,3526.6,1,NA,NA,
22123639,64,133,Cumulative,target,2-2_squares_hearts_C.png,,,Different,5964.1,NA,NA,0,2
22123639,65,211,Cumulative,prime1,2-3_hearts_circles_C.png,,2-3_hearts_circles_C.png,Different,2603.6,1,NA,NA,
22123639,66,212,Cumulative,prime2,2-3_triangles_squares_C.png,,2-3_triangles_squares_C.png,Different,2555.1,1,NA,NA,
22123639,67,213,Cumulative,target,2-2_hearts_squares_C.png,,,Different,2232.3,NA,NA,0,2
22123639,68,185,Cumulative,prime1,2-3_squares_circles_C.png,,2-3_squares_circles_C.png,Different,2260.8,1,NA,NA,
22123639,69,186,Cumulative,prime2,2-3_hearts_triangles_C.png,,2-3_hearts_triangles_C.png,Different,6547.7,1,NA,NA,
22123639,70,187,Cumulative,target,2-2_hearts_triangles_C.png,,,Different,2515.9,NA,NA,0,2
22123639,71,119,Cumulative,prime1,2-3_hearts_squares_C.png,,2-3_hearts_squares_C.png,Different,2099,1,NA,NA,
22123639,72,120,Cumulative,prime2,2-3_circles_triangles_C.png,,2-3_circles_triangles_C.png,Different,5284.4,1,NA,NA,
22123639,73,121,Cumulative,target,2-2_circles_squares_C.png,,,Different,4246.9,NA,NA,0,2
22123639,74,137,Cumulative,prime1,2-3_triangles_circles_C.png,,2-3_triangles_circles_C.png,Equal,4540.7,1,NA,NA,
22123639,75,138,Cumulative,prime2,2-3_hearts_squares_C.png,,2-3_hearts_squares_C.png,Equal,2971.7,1,NA,NA,
22123639,76,139,Cumulative,target,2-3_hearts_triangles_D.png,,,Equal,9069.2,NA,NA,1,2
22123639,77,78,Cumulative,prime1,2-3_squares_hearts_C.png,,2-3_squares_hearts_C.png,Equal,10440.6,1,NA,NA,
22123639,78,79,Cumulative,prime2,2-3_triangles_circles_C.png,,2-3_triangles_circles_C.png,Equal,3222.2,1,NA,NA,
22123639,79,80,Cumulative,target,2-3_squares_triangles_C.png,,,Equal,3077.7,NA,NA,0,2
22123639,80,179,Cumulative,prime1,2-3_hearts_circles_C.png,,2-3_hearts_circles_C.png,Equal,2103.3,1,NA,NA,
22123639,81,180,Cumulative,prime2,2-3_triangles_squares_C.png,,2-3_triangles_squares_C.png,Equal,3427.9,1,NA,NA,
22123639,82,181,Cumulative,target,2-3_squares_triangles_D.png,,,Equal,2884.2,NA,NA,1,2
22123639,83,144,Cumulative,prime1,2-3_circles_hearts_C.png,,2-3_circles_hearts_C.png,Equal,2261.2,1,NA,NA,
22123639,84,145,Cumulative,prime2,2-3_squares_triangles_C.png,,2-3_squares_triangles_C.png,Equal,2313.5,1,NA,NA,
22123639,85,146,Cumulative,target,2-3_triangles_circles_C.png,,,Equal,3230.7,NA,NA,0,2
22123639,86,53,Distributive,prime1,2-2_squares_circles_D.png,,2-2_squares_circles_D.png,Equal,3043.7,1,NA,NA,
22123639,87,54,Distributive,prime2,2-2_hearts_triangles_D.png,,2-2_hearts_triangles_D.png,Equal,2554.4,1,NA,NA,
22123639,88,55,Distributive,target,2-2_triangles_squares_C.png,,,Equal,3892.8,NA,NA,0,2
22123639,89,100,Distributive,prime1,2-2_squares_hearts_D.png,,2-2_squares_hearts_D.png,Equal,3865.3,1,NA,NA,
22123639,90,101,Distributive,prime2,2-2_triangles_circles_D.png,,2-2_triangles_circles_D.png,Equal,5017.6,1,NA,NA,
22123639,91,102,Distributive,target,2-2_circles_hearts_C.png,,,Equal,8772.6,NA,NA,0,2
22123639,92,66,Distributive,prime1,2-2_triangles_hearts_D.png,,2-2_triangles_hearts_D.png,Equal,3204.4,1,NA,NA,
22123639,93,67,Distributive,prime2,2-2_squares_circles_D.png,,2-2_squares_circles_D.png,Equal,3102.7,1,NA,NA,
22123639,94,68,Distributive,target,2-2_squares_circles_C.png,,,Equal,3057.2,NA,NA,0,2
22123639,95,59,Distributive,prime1,2-2_triangles_hearts_D.png,,2-2_triangles_hearts_D.png,Equal,6509.7,1,NA,NA,
22123639,96,60,Distributive,prime2,2-2_circles_squares_D.png,,2-2_circles_squares_D.png,Equal,3139.2,1,NA,NA,
22123639,97,61,Distributive,target,2-2_squares_circles_C.png,,,Equal,4193.3,NA,NA,0,2
22123639,98,37,Distributive,prime1,2-2_circles_hearts_D.png,,2-2_circles_hearts_D.png,Different,2687.5,1,NA,NA,
22123639,99,38,Distributive,prime2,2-2_squares_triangles_D.png,,2-2_squares_triangles_D.png,Different,2644.5,1,NA,NA,
22123639,100,39,Distributive,target,2-3_triangles_circles_D.png,,,Different,2425,NA,NA,1,2
22123639,101,148,Distributive,prime1,2-2_triangles_squares_D.png,,2-2_triangles_squares_D.png,Different,3694,1,NA,NA,
22123639,102,149,Distributive,prime2,2-2_hearts_circles_D.png,,2-2_hearts_circles_D.png,Different,3448.3,1,NA,NA,
22123639,103,150,Distributive,target,2-3_circles_triangles_C.png,,,Different,2164.9,NA,NA,0,2
22123639,104,220,Distributive,prime1,2-2_circles_hearts_D.png,,2-2_circles_hearts_D.png,Different,1913.8,1,NA,NA,
22123639,105,221,Distributive,prime2,2-2_squares_triangles_D.png,,2-2_squares_triangles_D.png,Different,2475,1,NA,NA,
22123639,106,222,Distributive,target,2-3_squares_circles_D.png,,,Different,2559.9,NA,NA,1,2
22123639,107,113,Distributive,prime1,2-2_hearts_squares_D.png,,2-2_hearts_squares_D.png,Different,3191.5,1,NA,NA,
22123639,108,114,Distributive,prime2,2-2_triangles_circles_D.png,,2-2_triangles_circles_D.png,Different,4160.8,1,NA,NA,
