"","Schedule.ID","Spreadsheet.Row","Trial.Number","Condition","trial.condition","Response","expected.response.filler","expected.response.prime","numeric.combination","Reaction.Time","accuracy.prime","accuracy.filler","distributive.target","accuracy.twoprimes"
"1","22123585","11","1","Baseline","target","2-2_hearts_squares_D.png","","","",5069,NA,NA,1,NA
"2","22123585","29","2","Baseline","filler","1-3_circle_hearts.png","1-3_circle_hearts.png","","",2721,NA,1,NA,NA
"3","22123585","19","3","Baseline","target","2-3_squares_triangles_D.png","","","",13901.8000000007,NA,NA,1,NA
"4","22123585","12","4","Baseline","target","2-2_circles_squares_D.png","","","",6293,NA,NA,1,NA
"5","22123585","25","5","Baseline","filler","1-2_triangle_hearts.png","1-2_triangle_hearts.png","","",3529.30000000075,NA,1,NA,NA
"6","22123585","24","6","Baseline","filler","1-2_square_triangles.png","1-2_square_triangles.png","","",3875.79999999702,NA,1,NA,NA
"7","22123585","10","7","Baseline","target","2-2_circles_triangles_D.png","","","",4030.70000000298,NA,NA,1,NA
"8","22123585","22","8","Baseline","filler","1-2_circle_hearts.png","1-2_circle_hearts.png","","",3488.30000000075,NA,1,NA,NA
"9","22123585","8","9","Baseline","target","2-2_hearts_triangles_D.png","","","",3311.5,NA,NA,1,NA
"10","22123585","16","10","Baseline","target","2-3_squares_triangles_D.png","","","",6763,NA,NA,1,NA
"11","22123585","15","11","Baseline","target","2-3_hearts_triangles_D.png","","","",5429.5,NA,NA,1,NA
"12","22123585","28","12","Baseline","filler","1-2_triangle_hearts.png","1-2_triangle_hearts.png","","",3879.89999999851,NA,1,NA,NA
"13","22123585","36","13","Baseline","filler","1-3_heart_triangles.png","1-3_heart_triangles.png","","",3326.19999999925,NA,1,NA,NA
"14","22123585","26","14","Baseline","filler","1-2_square_triangles.png","1-2_square_triangles.png","","",4274.5,NA,1,NA,NA
"15","22123585","18","15","Baseline","target","2-3_squares_triangles_D.png","","","",6716.89999999851,NA,NA,1,NA
"16","22123585","27","16","Baseline","filler","1-2_triangle_hearts.png","1-2_triangle_hearts.png","","",2819.60000000149,NA,1,NA,NA
"17","22123585","35","17","Baseline","filler","1-2_square_triangles.png","1-3_square_triangles.png","","",2164.89999999851,NA,0,NA,NA
"18","22123585","30","18","Baseline","filler","1-3_heart_triangles.png","1-3_heart_triangles.png","","",4096,NA,1,NA,NA
"19","22123585","21","19","Baseline","filler","1-2_circle_squares.png","1-2_circle_squares.png","","",3751.19999999925,NA,1,NA,NA
"20","22123585","32","20","Baseline","filler","1-3_circle_squares.png","1-3_circle_squares.png","","",6191.69999999925,NA,1,NA,NA
"21","22123585","34","21","Baseline","filler","1-3_square_circles.png","1-3_square_circles.png","","",3421.90000000224,NA,1,NA,NA
"22","22123585","6","22","Baseline","target","2-2_triangles_squares_D.png","","","",5211.19999999925,NA,NA,1,NA
"23","22123585","5","23","Baseline","target","2-2_circles_hearts_D.png","","","",6045.80000000075,NA,NA,1,NA
"24","22123585","14","24","Baseline","target","2-3_circles_squares_D.png","","","",5526.09999999776,NA,NA,1,NA
"25","22123585","7","25","Baseline","target","2-2_squares_hearts_D.png","","","",5478.89999999851,NA,NA,1,NA
"26","22123585","33","26","Baseline","filler","1-3_circle_triangles.png","1-3_circle_triangles.png","","",5705.90000000224,NA,1,NA,NA
"27","22123585","9","27","Baseline","target","2-2_hearts_squares_D.png","","","",6379.5,NA,NA,1,NA
"28","22123585","23","28","Baseline","filler","1-2_heart_triangles.png","1-2_heart_triangles.png","","",4313.80000000075,NA,1,NA,NA
"29","22123585","20","29","Baseline","target","2-3_triangles_circles_D.png","","","",5205,NA,NA,1,NA
"30","22123585","13","30","Baseline","target","2-3_squares_circles_D.png","","","",6552.20000000298,NA,NA,1,NA
"31","22123585","31","31","Baseline","filler","1-3_triangle_hearts.png","1-3_triangle_hearts.png","","",2868.5,NA,1,NA,NA
"32","22123585","17","32","Baseline","target","2-3_hearts_squares_D.png","","","",5322.39999999851,NA,NA,1,NA
"33","22123585","176","33","Control","prime1","1-3_square_triangles.png","","1-3_square_triangles.png","Equal",4195.5,1,NA,NA,NA
"34","22123585","177","34","Control","prime2","1-3_circle_hearts.png","","1-3_circle_hearts.png","Equal",3020.69999999925,1,NA,NA,NA
"35","22123585","178","35","Control","target","2-3_circles_hearts_D.png","","","Equal",2485.90000000224,NA,NA,1,2
"36","22123585","189","36","Cumulative","filler","2-2_squares_circles_C.png","2-2_squares_circles_C.png","","",18766.5,NA,1,NA,NA
"37","22123585","80","37","Cumulative","prime1","2-3_hearts_circles_C.png","","2-3_hearts_circles_C.png","Equal",9163.30000000075,1,NA,NA,NA
"38","22123585","81","38","Cumulative","prime2","2-3_triangles_squares_C.png","","2-3_triangles_squares_C.png","Equal",8161.90000000224,1,NA,NA,NA
"39","22123585","82","39","Cumulative","target","2-3_squares_triangles_D.png","","","Equal",11768.5999999978,NA,NA,1,2
"40","22123585","196","40","Cumulative","filler","2-3_squares_hearts_C.png","2-3_squares_hearts_C.png","","",7193.79999999702,NA,1,NA,NA
"41","22123585","183","41","Cumulative","filler","2-2_hearts_squares_C.png","2-2_hearts_squares_C.png","","",4582.39999999851,NA,1,NA,NA
"42","22123585","131","42","Distributive","prime1","2-3_hearts_triangles_D.png","","2-3_hearts_triangles_D.png","Equal",8708.90000000224,1,NA,NA,NA
"43","22123585","132","43","Distributive","prime2","2-3_circles_squares_D.png","","2-3_circles_squares_D.png","Equal",3274.20000000298,1,NA,NA,NA
"44","22123585","133","44","Distributive","target","2-3_squares_hearts_D.png","","","Equal",3405.5,NA,NA,1,2
"45","22123585","197","45","Cumulative","filler","2-3_hearts_squares_C.png","2-3_hearts_squares_C.png","","",8738.89999999851,NA,1,NA,NA
"46","22123585","206","46","Distributive","filler","2-2_triangles_circles_D.png","2-2_triangles_circles_D.png","","",8870.60000000149,NA,1,NA,NA
"47","22123585","158","47","Control","prime1","1-3_circle_hearts.png","","1-3_circle_hearts.png","Different",4484.69999999925,1,NA,NA,NA
"48","22123585","159","48","Control","prime2","1-3_triangle_squares.png","","1-3_triangle_squares.png","Different",3822.59999999776,1,NA,NA,NA
"49","22123585","160","49","Control","target","2-2_circles_hearts_D.png","","","Different",7605.39999999851,NA,NA,1,2
"50","22123585","113","50","Distributive","prime1","2-3_squares_circles_D.png","","2-3_squares_circles_D.png","Different",10657.299999997,1,NA,NA,NA
"51","22123585","114","51","Distributive","prime2","2-3_hearts_triangles_D.png","","2-3_hearts_triangles_D.png","Different",4094.39999999851,1,NA,NA,NA
"52","22123585","115","52","Distributive","target","2-2_circles_squares_D.png","","","Different",5509.30000000075,NA,NA,1,2
"53","22123585","201","53","Cumulative","filler","2-3_circles_hearts_C.png","2-3_circles_hearts_C.png","","",7256.19999999925,NA,1,NA,NA
"54","22123585","122","54","Distributive","prime1","2-3_hearts_circles_D.png","","2-3_hearts_circles_D.png","Equal",3700.60000000149,1,NA,NA,NA
"55","22123585","123","55","Distributive","prime2","2-3_triangles_squares_D.png","","2-3_triangles_squares_D.png","Equal",13131.799999997,1,NA,NA,NA
"56","22123585","124","56","Distributive","target","2-3_hearts_circles_D.png","","","Equal",6622.10000000149,NA,NA,1,2
"57","22123585","98","57","Distributive","prime1","2-2_circles_hearts_D.png","","2-2_circles_hearts_D.png","Different",11362.5,1,NA,NA,NA
"58","22123585","99","58","Distributive","prime2","2-2_squares_triangles_D.png","","2-2_squares_triangles_D.png","Different",7977.59999999776,1,NA,NA,NA
"59","22123585","100","59","Distributive","target","2-3_triangles_circles_D.png","","","Different",3668.60000000149,NA,NA,1,2
"60","22123585","86","60","Distributive","prime1","2-2_squares_circles_D.png","","2-2_squares_circles_D.png","Equal",4735.19999999925,1,NA,NA,NA
"61","22123585","87","61","Distributive","prime2","2-2_hearts_triangles_D.png","","2-2_hearts_triangles_D.png","Equal",6983.89999999851,1,NA,NA,NA
"62","22123585","88","62","Distributive","target","2-2_triangles_squares_D.png","","","Equal",5463.79999999702,NA,NA,1,2
"63","22123585","95","63","Distributive","prime1","2-2_triangles_hearts_D.png","","2-2_triangles_hearts_D.png","Equal",5305.10000000149,1,NA,NA,NA
"64","22123585","96","64","Distributive","prime2","2-2_circles_squares_D.png","","2-2_circles_squares_D.png","Equal",2834,1,NA,NA,NA
"65","22123585","97","65","Distributive","target","2-2_squares_circles_D.png","","","Equal",6629.90000000224,NA,NA,1,2
"66","22123585","185","66","Cumulative","filler","2-2_squares_hearts_C.png","2-2_squares_hearts_C.png","","",18946.5,NA,1,NA,NA
"67","22123585","188","67","Cumulative","filler","2-2_hearts_triangles_C.png","2-2_hearts_triangles_C.png","","",5934.70000000298,NA,1,NA,NA
"68","22123585","119","68","Distributive","prime1","2-3_triangles_circles_D.png","","2-3_triangles_circles_D.png","Different",4350.30000000075,1,NA,NA,NA
"69","22123585","120","69","Distributive","prime2","2-3_squares_hearts_D.png","","2-3_squares_hearts_D.png","Different",3545.59999999776,1,NA,NA,NA
"70","22123585","121","70","Distributive","target","2-2_squares_circles_D.png","","","Different",3699,NA,NA,1,2
"71","22123585","155","71","Control","prime1","1-2_triangle_hearts.png","","1-2_triangle_hearts.png","Different",8333.30000000075,1,NA,NA,NA
"72","22123585","156","72","Control","prime2","1-2_circle_squares.png","","1-2_circle_squares.png","Different",5247.69999999925,1,NA,NA,NA
"73","22123585","157","73","Control","target","2-3_circles_triangles_D.png","","","Different",3104.89999999851,NA,NA,1,2
"74","22123585","213","74","Distributive","filler","2-2_hearts_triangles_D.png","2-2_hearts_triangles_D.png","","",10364.0999999978,NA,1,NA,NA
"75","22123585","210","75","Distributive","filler","2-2_squares_hearts_D.png","2-2_squares_hearts_D.png","","",8564.69999999925,NA,1,NA,NA
"76","22123585","65","76","Cumulative","prime1","2-3_hearts_circles_C.png","","2-3_hearts_circles_C.png","Different",7787.30000000075,1,NA,NA,NA
"77","22123585","66","77","Cumulative","prime2","2-3_triangles_squares_C.png","","2-3_triangles_squares_C.png","Different",4358.5,1,NA,NA,NA
"78","22123585","67","78","Cumulative","target","2-2_hearts_squares_D.png","","","Different",8317.59999999776,NA,NA,1,2
"79","22123585","186","79","Cumulative","filler","2-2_circles_hearts_C.png","2-2_circles_hearts_C.png","","",6880.19999999925,NA,1,NA,NA
"80","22123585","44","80","Cumulative","prime1","2-2_squares_circles_C.png","","2-2_squares_circles_C.png","Equal",4838.60000000149,1,NA,NA,NA
"81","22123585","45","81","Cumulative","prime2","2-3_hearts_triangles_C.png","","2-2_hearts_triangles_C.png","Equal",3784.80000000075,0,NA,NA,NA
"82","22123585","46","82","Cumulative","target","2-2_triangles_squares_D.png","","","Equal",6845.5,NA,NA,1,1
"83","22123585","195","83","Cumulative","filler","2-3_triangles_hearts_C.png","2-3_triangles_hearts_C.png","","",6639.19999999925,NA,1,NA,NA
"84","22123585","125","84","Distributive","prime1","2-3_triangles_circles_D.png","","2-3_triangles_circles_D.png","Equal",6535.09999999776,1,NA,NA,NA
"85","22123585","126","85","Distributive","prime2","2-3_squares_hearts_D.png","","2-3_squares_hearts_D.png","Equal",19109.3000000007,1,NA,NA,NA
"86","22123585","127","86","Distributive","target","2-3_hearts_triangles_D.png","","","Equal",4318,NA,NA,1,2
"87","22123585","173","87","Control","prime1","1-3_square_circles.png","","1-3_square_circles.png","Equal",2521.5,1,NA,NA,NA
"88","22123585","174","88","Control","prime2","1-3_triangle_hearts.png","","1-3_triangle_hearts.png","Equal",3921.70000000298,1,NA,NA,NA
"89","22123585","175","89","Control","target","2-3_hearts_circles_D.png","","","Equal",8649.29999999702,NA,NA,1,2
"90","22123585","143","90","Control","prime1","1-2_square_triangles.png","","1-2_square_triangles.png","Equal",4773.39999999851,1,NA,NA,NA
"91","22123585","144","91","Control","prime2","1-2_circle_hearts.png","","1-2_circle_hearts.png","Equal",3643.90000000224,1,NA,NA,NA
"92","22123585","145","92","Control","target","2-2_hearts_circles_D.png","","","Equal",3172.19999999925,NA,NA,1,2
"93","22123585","194","93","Cumulative","filler","2-3_hearts_triangles_C.png","2-3_hearts_triangles_C.png","","",5381.40000000224,NA,1,NA,NA
"94","22123585","205","94","Cumulative","filler","2-3_triangles_circles_C.png","2-3_triangles_circles_C.png","","",7177.60000000149,NA,1,NA,NA
"95","22123585","56","95","Cumulative","prime1","2-2_hearts_circles_C.png","","2-2_hearts_circles_C.png","Different",14328.3000000007,1,NA,NA,NA
"96","22123585","57","96","Cumulative","prime2","2-2_triangles_squares_C.png","","2-2_triangles_squares_C.png","Different",6132.19999999925,1,NA,NA,NA
"97","22123585","58","97","Cumulative","target","2-3_circles_squares_D.png","","","Different",5186.40000000224,NA,NA,1,2
"98","22123585","208","98","Distributive","filler","2-2_triangles_squares_D.png","2-2_triangles_squares_D.png","","",7481.09999999776,NA,1,NA,NA
"99","22123585","74","99","Cumulative","prime1","2-3_triangles_circles_C.png","","2-3_triangles_circles_C.png","Equal",2613.69999999925,1,NA,NA,NA
"100","22123585","75","100","Cumulative","prime2","2-3_hearts_squares_C.png","","2-3_hearts_squares_C.png","Equal",6176.80000000075,1,NA,NA,NA
"101","22123585","76","101","Cumulative","target","2-3_hearts_triangles_D.png","","","Equal",6235.19999999925,NA,NA,1,2
"102","22123585","62","102","Cumulative","prime1","2-3_hearts_circles_C.png","","2-3_hearts_circles_C.png","Different",9276.69999999925,1,NA,NA,NA
"103","22123585","63","103","Cumulative","prime2","2-3_squares_triangles_C.png","","2-3_squares_triangles_C.png","Different",11568.6999999993,1,NA,NA,NA
"104","22123585","64","104","Cumulative","target","2-2_squares_hearts_C.png","","","Different",3429.19999999925,NA,NA,0,2
"105","22123585","107","105","Distributive","prime1","2-2_hearts_squares_D.png","","2-2_hearts_squares_D.png","Different",3677.09999999776,1,NA,NA,NA
"106","22123585","108","106","Distributive","prime2","2-2_triangles_circles_D.png","","2-2_triangles_circles_D.png","Different",4568.19999999925,1,NA,NA,NA
"107","22123585","109","107","Distributive","target","2-3_squares_hearts_D.png","","","Different",2947.39999999851,NA,NA,1,2
"108","22123585","187","108","Cumulative","filler","2-2_circles_squares_C.png","2-2_circles_squares_C.png","","",3346.79999999702,NA,1,NA,NA
"109","22123585","216","109","Distributive","filler","2-2_squares_hearts_D.png","2-2_squares_hearts_D.png","","",7941.79999999702,NA,1,NA,NA
"110","22123585","89","110","Distributive","prime1","2-2_squares_hearts_D.png","","2-2_squares_hearts_D.png","Equal",7739.60000000149,1,NA,NA,NA
"111","22123585","90","111","Distributive","prime2","2-2_triangles_circles_D.png","","2-2_triangles_circles_D.png","Equal",9141.60000000149,1,NA,NA,NA
"112","22123585","91","112","Distributive","target","2-2_circles_hearts_D.png","","","Equal",6050.59999999776,NA,NA,1,2
"113","22123585","184","113","Cumulative","filler","2-2_squares_hearts_C.png","2-2_squares_hearts_C.png","","",14294.200000003,NA,1,NA,NA
"114","22123585","226","114","Distributive","filler","2-3_hearts_triangles_D.png","2-3_hearts_triangles_D.png","","",5667.69999999925,NA,1,NA,NA
"115","22123585","212","115","Distributive","filler","2-2_circles_triangles_D.png","2-2_circles_triangles_D.png","","",8301,NA,1,NA,NA
"116","22123585","204","116","Cumulative","filler","2-3_circles_triangles_C.png","2-3_circles_triangles_C.png","","",3020.79999999702,NA,1,NA,NA
"117","22123585","116","117","Distributive","prime1","2-3_triangles_squares_D.png","","2-3_triangles_squares_D.png","Different",3795.80000000075,1,NA,NA,NA
"118","22123585","117","118","Distributive","prime2","2-3_hearts_circles_D.png","","2-3_hearts_circles_D.png","Different",4165.80000000075,1,NA,NA,NA
"119","22123585","118","119","Distributive","target","2-2_triangles_squares_D.png","","","Different",3088.5,NA,NA,1,2
"120","22123585","192","120","Cumulative","filler","2-2_circles_triangles_C.png","2-2_circles_triangles_C.png","","",5132.90000000224,NA,1,NA,NA
"121","22123585","53","121","Cumulative","prime1","2-2_squares_triangles_C.png","","2-2_squares_triangles_C.png","Different",29140.3000000007,1,NA,NA,NA
"122","22123585","54","122","Cumulative","prime2","2-2_hearts_circles_C.png","","2-2_hearts_circles_C.png","Different",4219.79999999702,1,NA,NA,NA
"123","22123585","55","123","Cumulative","target","2-3_hearts_squares_D.png","","","Different",6676,NA,NA,1,2
"124","22123585","228","124","Distributive","filler","2-3_triangles_circles_D.png","2-3_triangles_circles_D.png","","",3998.69999999925,NA,1,NA,NA
"125","22123585","224","125","Distributive","filler","2-3_squares_triangles_D.png","2-3_squares_triangles_D.png","","",7324.60000000149,NA,1,NA,NA
"126","22123585","220","126","Distributive","filler","2-3_hearts_triangles_D.png","2-3_hearts_triangles_D.png","","",5749.5,NA,1,NA,NA
"127","22123585","215","127","Distributive","filler","2-3_squares_triangles_C.png","2-2_squares_triangles_D.png","","",5644.29999999702,NA,0,NA,NA
"128","22123585","199","128","Cumulative","filler","2-3_squares_hearts_C.png","2-3_squares_hearts_C.png","","",7593,NA,1,NA,NA
"129","22123585","134","129","Control","prime1","1-2_circle_squares.png","","1-2_circle_squares.png","Equal",2873.69999999925,1,NA,NA,NA
"130","22123585","135","130","Control","prime2","1-2_triangle_hearts.png","","1-2_triangle_hearts.png","Equal",4938.5,1,NA,NA,NA
"131","22123585","136","131","Control","target","2-2_squares_triangles_D.png","","","Equal",8795.30000000075,NA,NA,1,2
"132","22123585","214","132","Distributive","filler","2-2_hearts_squares_D.png","2-2_hearts_squares_D.png","","",4131.30000000075,NA,1,NA,NA
"133","22123585","221","133","Distributive","filler","2-3_circles_hearts_D.png","2-3_circles_hearts_D.png","","",2886.30000000075,NA,1,NA,NA
"134","22123585","229","134","Distributive","filler","2-3_squares_hearts_D.png","2-3_squares_hearts_D.png","","",3307.69999999925,NA,1,NA,NA
"135","22123585","191","135","Cumulative","filler","2-2_triangles_hearts_C.png","2-2_triangles_hearts_C.png","","",5441.5,NA,1,NA,NA
"136","22123585","68","136","Cumulative","prime1","2-3_squares_circles_C.png","","2-3_squares_circles_C.png","Different",6841,1,NA,NA,NA
"137","22123585","69","137","Cumulative","prime2","2-3_hearts_triangles_C.png","","2-3_hearts_triangles_C.png","Different",5644.30000000075,1,NA,NA,NA
"138","22123585","70","138","Cumulative","target","2-2_hearts_triangles_C.png","","","Different",4573.79999999702,NA,NA,0,2
"139","22123585","59","139","Cumulative","prime1","2-2_circles_hearts_C.png","","2-2_circles_hearts_C.png","Different",6216.60000000149,1,NA,NA,NA
"140","22123585","60","140","Cumulative","prime2","2-2_squares_triangles_C.png","","2-2_squares_triangles_C.png","Different",7098.79999999702,1,NA,NA,NA
"141","22123585","61","141","Cumulative","target","2-3_squares_triangles_D.png","","","Different",6755.69999999925,NA,NA,1,2
"142","22123585","38","142","Cumulative","prime1","2-2_hearts_triangles_C.png","","2-2_hearts_triangles_C.png","Equal",7128.29999999702,1,NA,NA,NA
"143","22123585","39","143","Cumulative","prime2","2-2_circles_squares_C.png","","2-2_circles_squares_C.png","Equal",11381.1999999993,1,NA,NA,NA
"144","22123585","40","144","Cumulative","target","2-2_circles_hearts_D.png","","","Equal",8032.59999999776,NA,NA,1,2
"145","22123585","217","145","Distributive","filler","2-2_triangles_circles_D.png","2-2_triangles_circles_D.png","","",14885.3000000007,NA,1,NA,NA
"146","22123585","222","146","Distributive","filler","2-3_squares_triangles_D.png","2-3_squares_triangles_D.png","","",4610.90000000224,NA,1,NA,NA
"147","22123585","219","147","Distributive","filler","2-3_hearts_triangles_D.png","2-3_hearts_triangles_D.png","","",3442.30000000075,NA,1,NA,NA
"148","22123585","77","148","Cumulative","prime1","2-3_squares_hearts_C.png","","2-3_squares_hearts_C.png","Equal",6615.70000000298,1,NA,NA,NA
"149","22123585","78","149","Cumulative","prime2","2-3_triangles_circles_C.png","","2-3_triangles_circles_C.png","Equal",4828,1,NA,NA,NA
"150","22123585","79","150","Cumulative","target","2-3_squares_triangles_D.png","","","Equal",3460.10000000149,NA,NA,1,2
"151","22123585","198","151","Cumulative","filler","2-3_squares_triangles_C.png","2-3_squares_triangles_C.png","","",4689.80000000075,NA,1,NA,NA
"152","22123585","202","152","Cumulative","filler","2-3_hearts_triangles_C.png","2-3_hearts_triangles_C.png","","",5026.09999999776,NA,1,NA,NA
"153","22123585","164","153","Control","prime1","1-3_triangle_hearts.png","","1-3_triangle_hearts.png","Different",3510.90000000224,1,NA,NA,NA
"154","22123585","165","154","Control","prime2","1-3_circle_squares.png","","1-3_circle_squares.png","Different",4269.89999999851,1,NA,NA,NA
"155","22123585","166","155","Control","target","2-2_hearts_circles_D.png","","","Different",6109.60000000149,NA,NA,1,2
"156","22123585","104","156","Distributive","prime1","2-2_circles_hearts_D.png","","2-2_circles_hearts_D.png","Different",3652.20000000298,1,NA,NA,NA
"157","22123585","105","157","Distributive","prime2","2-2_squares_triangles_D.png","","2-2_squares_triangles_D.png","Different",6203.89999999851,1,NA,NA,NA
"158","22123585","106","158","Distributive","target","2-3_squares_circles_D.png","","","Different",6127,NA,NA,1,2
"159","22123585","207","159","Distributive","filler","2-2_squares_triangles_D.png","2-2_squares_triangles_D.png","","",4752.80000000075,NA,1,NA,NA
"160","22123585","218","160","Distributive","filler","2-3_triangles_hearts_D.png","2-3_triangles_hearts_D.png","","",4492.5,NA,1,NA,NA
"161","22123585","223","161","Distributive","filler","2-3_circles_hearts_D.png","2-3_circles_hearts_D.png","","",5104.80000000075,NA,1,NA,NA
"162","22123585","149","162","Control","prime1","1-2_square_triangles.png","","1-2_square_triangles.png","Different",3144,1,NA,NA,NA
"163","22123585","150","163","Control","prime2","1-2_heart_circles.png","","1-2_heart_circles.png","Different",2576.90000000224,1,NA,NA,NA
"164","22123585","151","164","Control","target","2-3_squares_triangles_D.png","","","Different",3928,NA,NA,1,2
"165","22123585","170","165","Control","prime1","1-3_circle_triangles.png","","1-3_circle_triangles.png","Equal",3392.30000000075,1,NA,NA,NA
"166","22123585","171","166","Control","prime2","1-3_heart_squares.png","","1-3_heart_squares.png","Equal",2769,1,NA,NA,NA
"167","22123585","172","167","Control","target","2-3_squares_triangles_D.png","","","Equal",6236.30000000075,NA,NA,1,2
"168","22123585","190","168","Cumulative","filler","2-2_squares_triangles_C.png","2-2_squares_triangles_C.png","","",5049.39999999851,NA,1,NA,NA
"169","22123585","193","169","Cumulative","filler","2-2_circles_triangles_C.png","2-2_circles_triangles_C.png","","",7638.5,NA,1,NA,NA
"170","22123585","110","170","Distributive","prime1","2-3_triangles_circles_D.png","","2-3_triangles_circles_D.png","Different",5268.39999999851,1,NA,NA,NA
"171","22123585","111","171","Distributive","prime2","2-3_squares_hearts_D.png","","2-3_squares_hearts_D.png","Different",5212.39999999851,1,NA,NA,NA
"172","22123585","112","172","Distributive","target","2-2_squares_hearts_D.png","","","Different",7926,NA,NA,1,2
"173","22123585","225","173","Distributive","filler","2-3_hearts_circles_D.png","2-3_hearts_circles_D.png","","",5078.60000000149,NA,1,NA,NA
"174","22123585","47","174","Cumulative","prime1","2-3_squares_circles_C.png","","2-2_squares_circles_C.png","Equal",4342.30000000075,0,NA,NA,NA
"175","22123585","48","175","Cumulative","prime2","2-2_triangles_hearts_C.png","","2-2_triangles_hearts_C.png","Equal",8123.89999999851,1,NA,NA,NA
"176","22123585","49","176","Cumulative","target","2-2_circles_triangles_D.png","","","Equal",4679.40000000224,NA,NA,1,1
"177","22123585","152","177","Control","prime1","1-2_triangle_hearts.png","","1-2_triangle_hearts.png","Different",5610,1,NA,NA,NA
"178","22123585","153","178","Control","prime2","1-2_circle_squares.png","","1-2_circle_squares.png","Different",4757.80000000075,1,NA,NA,NA
"179","22123585","154","179","Control","target","2-3_circles_squares_D.png","","","Different",5664.89999999851,NA,NA,1,2
"180","22123585","146","180","Control","prime1","1-2_triangle_hearts.png","","1-2_triangle_hearts.png","Different",3929.5,1,NA,NA,NA
"181","22123585","147","181","Control","prime2","1-2_circle_squares.png","","1-2_circle_squares.png","Different",4597,1,NA,NA,NA
"182","22123585","148","182","Control","target","2-3_squares_triangles_D.png","","","Different",4923.10000000149,NA,NA,1,2
"183","22123585","128","183","Distributive","prime1","2-3_hearts_squares_D.png","","2-3_hearts_squares_D.png","Equal",5030,1,NA,NA,NA
"184","22123585","129","184","Distributive","prime2","2-3_circles_triangles_D.png","","2-3_circles_triangles_D.png","Equal",11749,1,NA,NA,NA
"185","22123585","130","185","Distributive","target","2-3_triangles_circles_D.png","","","Equal",6080.10000000149,NA,NA,1,2
"186","22123585","50","186","Cumulative","prime1","2-3_hearts_circles_C.png","","2-2_hearts_circles_C.png","Different",3480.09999999776,0,NA,NA,NA
"187","22123585","51","187","Cumulative","prime2","2-2_triangles_squares_C.png","","2-2_triangles_squares_C.png","Different",8758,1,NA,NA,NA
"188","22123585","52","188","Cumulative","target","2-3_squares_circles_D.png","","","Different",8417.80000000075,NA,NA,1,1
"189","22123585","182","189","Cumulative","filler","2-2_circles_triangles_C.png","2-2_circles_triangles_C.png","","",14131.8000000007,NA,1,NA,NA
"190","22123585","200","190","Cumulative","filler","2-3_circles_triangles_C.png","2-3_circles_triangles_C.png","","",2941.80000000075,NA,1,NA,NA
"191","22123585","41","191","Cumulative","prime1","2-2_triangles_hearts_C.png","","2-2_triangles_hearts_C.png","Equal",3419.39999999851,1,NA,NA,NA
"192","22123585","42","192","Cumulative","prime2","2-2_squares_circles_C.png","","2-2_squares_circles_C.png","Equal",5975.89999999851,1,NA,NA,NA
"193","22123585","43","193","Cumulative","target","2-2_hearts_squares_D.png","","","Equal",10528.5999999978,NA,NA,1,2
"194","22123585","71","194","Cumulative","prime1","2-3_hearts_squares_C.png","","2-3_hearts_squares_C.png","Different",13038.8000000007,1,NA,NA,NA
"195","22123585","72","195","Cumulative","prime2","2-3_circles_triangles_C.png","","2-3_circles_triangles_C.png","Different",6700.90000000224,1,NA,NA,NA
"196","22123585","73","196","Cumulative","target","2-2_circles_squares_D.png","","","Different",6434.5,NA,NA,1,2
"197","22123585","101","197","Distributive","prime1","2-2_triangles_squares_D.png","","2-2_triangles_squares_D.png","Different",4823.10000000149,1,NA,NA,NA
"198","22123585","102","198","Distributive","prime2","2-2_hearts_circles_D.png","","2-2_hearts_circles_D.png","Different",5024.5,1,NA,NA,NA
"199","22123585","103","199","Distributive","target","2-3_circles_triangles_D.png","","","Different",4271.19999999925,NA,NA,1,2
"200","22123585","209","200","Distributive","filler","2-2_hearts_circles_D.png","2-2_hearts_circles_D.png","","",4840.39999999851,NA,1,NA,NA
"201","22123585","83","201","Cumulative","prime1","2-3_circles_hearts_C.png","","2-3_circles_hearts_C.png","Equal",3096.89999999851,1,NA,NA,NA
"202","22123585","84","202","Cumulative","prime2","2-3_squares_triangles_C.png","","2-3_squares_triangles_C.png","Equal",4935.60000000149,1,NA,NA,NA
"203","22123585","85","203","Cumulative","target","2-3_triangles_circles_D.png","","","Equal",5806.89999999851,NA,NA,1,2
"204","22123585","211","204","Distributive","filler","2-3_hearts_triangles_C.png","2-2_hearts_triangles_D.png","","",4915,NA,0,NA,NA
"205","22123585","137","205","Control","prime1","1-2_circle_hearts.png","","1-2_circle_hearts.png","Equal",4146.09999999776,1,NA,NA,NA
"206","22123585","138","206","Control","prime2","1-2_square_triangles.png","","1-2_square_triangles.png","Equal",6516.19999999925,1,NA,NA,NA
"207","22123585","139","207","Control","target","2-2_hearts_triangles_D.png","","","Equal",9007.39999999851,NA,NA,1,2
"208","22123585","179","208","Control","prime1","1-3_heart_triangles.png","","1-3_heart_triangles.png","Equal",2478.19999999925,1,NA,NA,NA
"209","22123585","180","209","Control","prime2","1-3_square_circles.png","","1-3_square_circles.png","Equal",3369.89999999851,1,NA,NA,NA
"210","22123585","181","210","Control","target","2-3_circles_squares_D.png","","","Equal",11130,NA,NA,1,2
"211","22123585","92","211","Distributive","prime1","2-2_triangles_hearts_D.png","","2-2_triangles_hearts_D.png","Equal",4437.60000000149,1,NA,NA,NA
"212","22123585","93","212","Distributive","prime2","2-2_squares_circles_D.png","","2-2_squares_circles_D.png","Equal",15279.8999999985,1,NA,NA,NA
"213","22123585","94","213","Distributive","target","2-2_squares_circles_D.png","","","Equal",4361.80000000075,NA,NA,1,2
"214","22123585","227","214","Distributive","filler","2-3_squares_hearts_D.png","2-3_squares_hearts_D.png","","",6415.79999999702,NA,1,NA,NA
"215","22123585","167","215","Control","prime1","1-3_circle_squares.png","","1-3_circle_squares.png","Different",3786.59999999776,1,NA,NA,NA
"216","22123585","168","216","Control","prime2","1-3_heart_triangles.png","","1-3_heart_triangles.png","Different",5842.69999999925,1,NA,NA,NA
"217","22123585","169","217","Control","target","2-2_triangles_hearts_D.png","","","Different",7706.30000000075,NA,NA,1,2
"218","22123585","203","218","Cumulative","filler","2-3_circles_triangles_C.png","2-3_circles_triangles_C.png","","",4774.39999999851,NA,1,NA,NA
"219","22123585","161","219","Control","prime1","1-3_heart_triangles.png","","1-3_heart_triangles.png","Different",2912.10000000149,1,NA,NA,NA
"220","22123585","162","220","Control","prime2","1-3_circle_squares.png","","1-3_circle_squares.png","Different",1969.59999999776,1,NA,NA,NA
"221","22123585","163","221","Control","target","2-2_triangles_circles_D.png","","","Different",5006.30000000075,NA,NA,1,2
"222","22123585","140","222","Control","prime1","1-2_heart_triangles.png","","1-2_heart_triangles.png","Equal",3277.39999999851,1,NA,NA,NA
"223","22123585","141","223","Control","prime2","1-2_circle_squares.png","","1-2_circle_squares.png","Equal",2664.30000000075,1,NA,NA,NA
"224","22123585","142","224","Control","target","2-2_triangles_circles_D.png","","","Equal",4361.19999999925,NA,NA,1,2
"225","22123587","20","1","Baseline","target","2-3_triangles_circles_D.png","","","",5635.80000001192,NA,NA,1,NA
"226","22123587","23","2","Baseline","filler","1-2_heart_triangles.png","1-2_heart_triangles.png","","",2672.60000002384,NA,1,NA,NA
"227","22123587","29","3","Baseline","filler","1-3_circle_hearts.png","1-3_circle_hearts.png","","",2200,NA,1,NA,NA
"228","22123587","10","4","Baseline","target","2-2_circles_triangles_D.png","","","",4882.19999998808,NA,NA,1,NA
"229","22123587","15","5","Baseline","target","2-3_hearts_triangles_D.png","","","",3608.10000002384,NA,NA,1,NA
"230","22123587","8","6","Baseline","target","2-2_hearts_triangles_D.png","","","",2383.30000001192,NA,NA,1,NA
"231","22123587","14","7","Baseline","target","2-3_circles_squares_D.png","","","",4387.19999998808,NA,NA,1,NA
"232","22123587","34","8","Baseline","filler","1-3_square_circles.png","1-3_square_circles.png","","",4817.69999998808,NA,1,NA,NA
"233","22123587","36","9","Baseline","filler","1-3_heart_triangles.png","1-3_heart_triangles.png","","",2050.39999997616,NA,1,NA,NA
"234","22123587","31","10","Baseline","filler","1-3_triangle_hearts.png","1-3_triangle_hearts.png","","",1522.80000001192,NA,1,NA,NA
"235","22123587","18","11","Baseline","target","2-3_squares_triangles_D.png","","","",2183.60000002384,NA,NA,1,NA
"236","22123587","12","12","Baseline","target","2-2_circles_squares_D.png","","","",2684.10000002384,NA,NA,1,NA
"237","22123587","5","13","Baseline","target","2-2_circles_hearts_D.png","","","",2152.09999996424,NA,NA,1,NA
"238","22123587","19","14","Baseline","target","2-3_squares_triangles_D.png","","","",2615.60000002384,NA,NA,1,NA
"239","22123587","27","15","Baseline","filler","1-2_triangle_hearts.png","1-2_triangle_hearts.png","","",2298.5,NA,1,NA,NA
"240","22123587","11","16","Baseline","target","2-2_hearts_squares_D.png","","","",2380.5,NA,NA,1,NA
"241","22123587","35","17","Baseline","filler","1-3_square_triangles.png","1-3_square_triangles.png","","",2873.09999996424,NA,1,NA,NA
"242","22123587","30","18","Baseline","filler","1-3_heart_triangles.png","1-3_heart_triangles.png","","",2787.69999998808,NA,1,NA,NA
"243","22123587","13","19","Baseline","target","2-3_squares_circles_D.png","","","",3840.5,NA,NA,1,NA
"244","22123587","24","20","Baseline","filler","1-2_square_triangles.png","1-2_square_triangles.png","","",3217.19999998808,NA,1,NA,NA
"245","22123587","33","21","Baseline","filler","1-3_circle_triangles.png","1-3_circle_triangles.png","","",1658.30000001192,NA,1,NA,NA
"246","22123587","25","22","Baseline","filler","1-2_triangle_hearts.png","1-2_triangle_hearts.png","","",1973.10000002384,NA,1,NA,NA
"247","22123587","7","23","Baseline","target","2-2_squares_hearts_D.png","","","",2766.5,NA,NA,1,NA
"248","22123587","26","24","Baseline","filler","1-2_square_triangles.png","1-2_square_triangles.png","","",2509.69999998808,NA,1,NA,NA
"249","22123587","17","25","Baseline","target","2-3_hearts_squares_D.png","","","",2307.40000003576,NA,NA,1,NA
"250","22123587","9","26","Baseline","target","2-2_hearts_squares_D.png","","","",4431,NA,NA,1,NA
"251","22123587","21","27","Baseline","filler","1-2_circle_squares.png","1-2_circle_squares.png","","",1655.69999998808,NA,1,NA,NA
"252","22123587","32","28","Baseline","filler","1-3_circle_squares.png","1-3_circle_squares.png","","",1947.89999997616,NA,1,NA,NA
"253","22123587","22","29","Baseline","filler","1-2_circle_hearts.png","1-2_circle_hearts.png","","",3911.5,NA,1,NA,NA
"254","22123587","6","30","Baseline","target","2-2_triangles_squares_D.png","","","",2261.69999998808,NA,NA,1,NA
"255","22123587","28","31","Baseline","filler","1-2_triangle_hearts.png","1-2_triangle_hearts.png","","",1839.5,NA,1,NA,NA
"256","22123587","16","32","Baseline","target","2-3_squares_triangles_D.png","","","",3330.69999998808,NA,NA,1,NA
"257","22123587","193","33","Cumulative","filler","2-2_circles_triangles_C.png","2-2_circles_triangles_C.png","","",8254.29999995232,NA,1,NA,NA
"258","22123587","200","34","Cumulative","filler","2-3_circles_triangles_C.png","2-3_circles_triangles_C.png","","",2870.90000003576,NA,1,NA,NA
"259","22123587","183","35","Cumulative","filler","2-2_hearts_squares_C.png","2-2_hearts_squares_C.png","","",4353.39999997616,NA,1,NA,NA
"260","22123587","194","36","Cumulative","filler","2-3_hearts_triangles_C.png","2-3_hearts_triangles_C.png","","",5441.5,NA,1,NA,NA
"261","22123587","47","37","Cumulative","prime1","2-2_squares_circles_C.png","","2-2_squares_circles_C.png","Equal",8375.10000002384,1,NA,NA,NA
"262","22123587","48","38","Cumulative","prime2","2-2_triangles_hearts_C.png","","2-2_triangles_hearts_C.png","Equal",2502.69999998808,1,NA,NA,NA
"263","22123587","49","39","Cumulative","target","2-2_circles_triangles_C.png","","","Equal",2164.40000003576,NA,NA,0,2
"264","22123587","220","40","Distributive","filler","2-3_hearts_triangles_D.png","2-3_hearts_triangles_D.png","","",3017.80000001192,NA,1,NA,NA
"265","22123587","218","41","Distributive","filler","2-3_triangles_hearts_D.png","2-3_triangles_hearts_D.png","","",2708.80000001192,NA,1,NA,NA
"266","22123587","206","42","Distributive","filler","2-2_triangles_circles_D.png","2-2_triangles_circles_D.png","","",2572,NA,1,NA,NA
"267","22123587","190","43","Cumulative","filler","2-2_squares_triangles_C.png","2-2_squares_triangles_C.png","","",5424.69999998808,NA,1,NA,NA
"268","22123587","38","44","Cumulative","prime1","2-2_hearts_triangles_C.png","","2-2_hearts_triangles_C.png","Equal",2084.40000003576,1,NA,NA,NA
"269","22123587","39","45","Cumulative","prime2","2-3_circles_squares_C.png","","2-2_circles_squares_C.png","Equal",2587.5,0,NA,NA,NA
"270","22123587","40","46","Cumulative","target","2-2_circles_hearts_C.png","","","Equal",3415.19999998808,NA,NA,0,1
"271","22123587","110","47","Distributive","prime1","2-3_triangles_circles_D.png","","2-3_triangles_circles_D.png","Different",2585.39999997616,1,NA,NA,NA
"272","22123587","111","48","Distributive","prime2","2-3_squares_hearts_D.png","","2-3_squares_hearts_D.png","Different",2506.70000004768,1,NA,NA,NA
"273","22123587","112","49","Distributive","target","2-2_squares_hearts_D.png","","","Different",2361.89999997616,NA,NA,1,2
"274","22123587","204","50","Cumulative","filler","2-3_circles_triangles_C.png","2-3_circles_triangles_C.png","","",2526.60000002384,NA,1,NA,NA
"275","22123587","215","51","Distributive","filler","2-2_squares_triangles_D.png","2-2_squares_triangles_D.png","","",3183.89999997616,NA,1,NA,NA
"276","22123587","186","52","Cumulative","filler","2-2_circles_hearts_C.png","2-2_circles_hearts_C.png","","",2558.30000001192,NA,1,NA,NA
"277","22123587","225","53","Distributive","filler","2-3_hearts_circles_D.png","2-3_hearts_circles_D.png","","",2177,NA,1,NA,NA
"278","22123587","53","54","Cumulative","prime1","2-2_squares_triangles_C.png","","2-2_squares_triangles_C.png","Different",2359.70000004768,1,NA,NA,NA
"279","22123587","54","55","Cumulative","prime2","2-3_hearts_circles_C.png","","2-2_hearts_circles_C.png","Different",2405.69999998808,0,NA,NA,NA
"280","22123587","55","56","Cumulative","target","2-3_hearts_squares_D.png","","","Different",4649.19999998808,NA,NA,1,1
"281","22123587","173","57","Control","prime1","1-3_square_circles.png","","1-3_square_circles.png","Equal",2623.5,1,NA,NA,NA
"282","22123587","174","58","Control","prime2","1-3_triangle_hearts.png","","1-3_triangle_hearts.png","Equal",3695.5,1,NA,NA,NA
"283","22123587","175","59","Control","target","2-3_hearts_circles_C.png","","","Equal",8999.09999996424,NA,NA,0,2
"284","22123587","44","60","Cumulative","prime1","2-2_squares_circles_C.png","","2-2_squares_circles_C.png","Equal",2236.89999997616,1,NA,NA,NA
"285","22123587","45","61","Cumulative","prime2","2-2_hearts_triangles_C.png","","2-2_hearts_triangles_C.png","Equal",2707.20000004768,1,NA,NA,NA
"286","22123587","46","62","Cumulative","target","2-2_triangles_squares_C.png","","","Equal",2243.30000001192,NA,NA,0,2
"287","22123587","164","63","Control","prime1","1-3_triangle_hearts.png","","1-3_triangle_hearts.png","Different",2406.80000001192,1,NA,NA,NA
"288","22123587","165","64","Control","prime2","1-3_circle_squares.png","","1-3_circle_squares.png","Different",1445.30000001192,1,NA,NA,NA
"289","22123587","166","65","Control","target","2-2_hearts_circles_C.png","","","Different",1365.40000003576,NA,NA,0,2
"290","22123587","107","66","Distributive","prime1","2-2_hearts_squares_D.png","","2-2_hearts_squares_D.png","Different",1618.10000002384,1,NA,NA,NA
"291","22123587","108","67","Distributive","prime2","2-2_triangles_circles_D.png","","2-2_triangles_circles_D.png","Different",1654.5,1,NA,NA,NA
"292","22123587","109","68","Distributive","target","2-3_squares_hearts_D.png","","","Different",2185.5,NA,NA,1,2
"293","22123587","187","69","Cumulative","filler","2-2_circles_squares_C.png","2-2_circles_squares_C.png","","",3076.30000001192,NA,1,NA,NA
"294","22123587","199","70","Cumulative","filler","2-3_squares_hearts_C.png","2-3_squares_hearts_C.png","","",2049,NA,1,NA,NA
"295","22123587","158","71","Control","prime1","1-3_circle_hearts.png","","1-3_circle_hearts.png","Different",2265.69999998808,1,NA,NA,NA
"296","22123587","159","72","Control","prime2","1-3_triangle_squares.png","","1-3_triangle_squares.png","Different",1851.30000001192,1,NA,NA,NA
"297","22123587","160","73","Control","target","2-2_circles_hearts_D.png","","","Different",2071.10000002384,NA,NA,1,2
"298","22123587","216","74","Distributive","filler","2-2_squares_hearts_D.png","2-2_squares_hearts_D.png","","",27336.9000000358,NA,1,NA,NA
"299","22123587","65","75","Cumulative","prime1","2-3_hearts_circles_C.png","","2-3_hearts_circles_C.png","Different",1581.20000004768,1,NA,NA,NA
"300","22123587","66","76","Cumulative","prime2","2-3_triangles_squares_C.png","","2-3_triangles_squares_C.png","Different",1818.09999996424,1,NA,NA,NA
"301","22123587","67","77","Cumulative","target","2-2_hearts_squares_C.png","","","Different",2877.09999996424,NA,NA,0,2
"302","22123587","170","78","Control","prime1","1-3_circle_triangles.png","","1-3_circle_triangles.png","Equal",1549.5,1,NA,NA,NA
"303","22123587","171","79","Control","prime2","1-3_heart_squares.png","","1-3_heart_squares.png","Equal",2187.89999997616,1,NA,NA,NA
"304","22123587","172","80","Control","target","2-3_squares_triangles_D.png","","","Equal",2032.19999998808,NA,NA,1,2
"305","22123587","143","81","Control","prime1","1-2_square_triangles.png","","1-2_square_triangles.png","Equal",2111.10000002384,1,NA,NA,NA
"306","22123587","144","82","Control","prime2","1-2_circle_hearts.png","","1-2_circle_hearts.png","Equal",2425.09999996424,1,NA,NA,NA
"307","22123587","145","83","Control","target","2-2_hearts_circles_D.png","","","Equal",12169.1999999881,NA,NA,1,2
"308","22123587","122","84","Distributive","prime1","2-3_hearts_circles_D.png","","2-3_hearts_circles_D.png","Equal",2654.19999998808,1,NA,NA,NA
"309","22123587","123","85","Distributive","prime2","2-3_triangles_squares_D.png","","2-3_triangles_squares_D.png","Equal",2967.69999998808,1,NA,NA,NA
"310","22123587","124","86","Distributive","target","2-3_hearts_circles_C.png","","","Equal",2515.40000003576,NA,NA,0,2
"311","22123587","137","87","Control","prime1","1-2_circle_hearts.png","","1-2_circle_hearts.png","Equal",1800.60000002384,1,NA,NA,NA
"312","22123587","138","88","Control","prime2","1-2_square_triangles.png","","1-2_square_triangles.png","Equal",1829.10000002384,1,NA,NA,NA
"313","22123587","139","89","Control","target","2-2_hearts_triangles_C.png","","","Equal",2446.80000001192,NA,NA,0,2
"314","22123587","196","90","Cumulative","filler","2-3_squares_hearts_C.png","2-3_squares_hearts_C.png","","",1982.39999997616,NA,1,NA,NA
"315","22123587","227","91","Distributive","filler","2-3_squares_hearts_D.png","2-3_squares_hearts_D.png","","",2014.69999998808,NA,1,NA,NA
"316","22123587","203","92","Cumulative","filler","2-3_circles_triangles_C.png","2-3_circles_triangles_C.png","","",1899.80000001192,NA,1,NA,NA
"317","22123587","128","93","Distributive","prime1","2-3_hearts_squares_D.png","","2-3_hearts_squares_D.png","Equal",4369.19999998808,1,NA,NA,NA
"318","22123587","129","94","Distributive","prime2","2-3_circles_triangles_D.png","","2-3_circles_triangles_D.png","Equal",2337.19999998808,1,NA,NA,NA
"319","22123587","130","95","Distributive","target","2-3_triangles_circles_D.png","","","Equal",2306.59999996424,NA,NA,1,2
"320","22123587","202","96","Cumulative","filler","2-3_hearts_triangles_C.png","2-3_hearts_triangles_C.png","","",1674.5,NA,1,NA,NA
"321","22123587","152","97","Control","prime1","1-2_triangle_hearts.png","","1-2_triangle_hearts.png","Different",2434.5,1,NA,NA,NA
"322","22123587","153","98","Control","prime2","1-2_circle_squares.png","","1-2_circle_squares.png","Different",4283.69999998808,1,NA,NA,NA
"323","22123587","154","99","Control","target","2-3_circles_squares_C.png","","","Different",4003,NA,NA,0,2
"324","22123587","80","100","Cumulative","prime1","2-3_hearts_circles_C.png","","2-3_hearts_circles_C.png","Equal",2280.30000001192,1,NA,NA,NA
"325","22123587","81","101","Cumulative","prime2","2-3_triangles_squares_C.png","","2-3_triangles_squares_C.png","Equal",2629,1,NA,NA,NA
"326","22123587","82","102","Cumulative","target","2-3_squares_triangles_C.png","","","Equal",4524.80000001192,NA,NA,0,2
"327","22123587","77","103","Cumulative","prime1","2-3_squares_hearts_C.png","","2-3_squares_hearts_C.png","Equal",1706.80000001192,1,NA,NA,NA
"328","22123587","78","104","Cumulative","prime2","2-3_triangles_circles_C.png","","2-3_triangles_circles_C.png","Equal",1756.60000002384,1,NA,NA,NA
"329","22123587","79","105","Cumulative","target","2-3_squares_triangles_C.png","","","Equal",2177.09999996424,NA,NA,0,2
"330","22123587","41","106","Cumulative","prime1","2-2_triangles_hearts_C.png","","2-2_triangles_hearts_C.png","Equal",5056.70000004768,1,NA,NA,NA
"331","22123587","42","107","Cumulative","prime2","2-2_squares_circles_C.png","","2-2_squares_circles_C.png","Equal",1665.30000001192,1,NA,NA,NA
"332","22123587","43","108","Cumulative","target","2-2_hearts_squares_C.png","","","Equal",2195.09999996424,NA,NA,0,2
"333","22123587","221","109","Distributive","filler","2-3_circles_hearts_D.png","2-3_circles_hearts_D.png","","",2548.5,NA,1,NA,NA
"334","22123587","98","110","Distributive","prime1","2-2_circles_hearts_D.png","","2-2_circles_hearts_D.png","Different",6064.80000001192,1,NA,NA,NA
"335","22123587","99","111","Distributive","prime2","2-2_squares_triangles_D.png","","2-2_squares_triangles_D.png","Different",2604.80000001192,1,NA,NA,NA
"336","22123587","100","112","Distributive","target","2-3_triangles_circles_D.png","","","Different",1611.90000003576,NA,NA,1,2
"337","22123587","182","113","Cumulative","filler","2-2_circles_triangles_C.png","2-2_circles_triangles_C.png","","",2703.10000002384,NA,1,NA,NA
"338","22123587","68","114","Cumulative","prime1","2-2_squares_circles_C.png","","2-3_squares_circles_C.png","Different",1082.90000003576,0,NA,NA,NA
"339","22123587","69","115","Cumulative","prime2","2-3_hearts_triangles_C.png","","2-3_hearts_triangles_C.png","Different",2378.89999997616,1,NA,NA,NA
"340","22123587","70","116","Cumulative","target","2-2_hearts_triangles_C.png","","","Different",2072.30000001192,NA,NA,0,1
"341","22123587","195","117","Cumulative","filler","2-3_triangles_hearts_C.png","2-3_triangles_hearts_C.png","","",3773.59999996424,NA,1,NA,NA
"342","22123587","223","118","Distributive","filler","2-3_circles_hearts_D.png","2-3_circles_hearts_D.png","","",2609.69999998808,NA,1,NA,NA
"343","22123587","224","119","Distributive","filler","2-3_squares_triangles_D.png","2-3_squares_triangles_D.png","","",2781.80000001192,NA,1,NA,NA
"344","22123587","188","120","Cumulative","filler","2-2_hearts_triangles_C.png","2-2_hearts_triangles_C.png","","",1585,NA,1,NA,NA
"345","22123587","184","121","Cumulative","filler","2-2_squares_hearts_C.png","2-2_squares_hearts_C.png","","",1727.89999997616,NA,1,NA,NA
"346","22123587","62","122","Cumulative","prime1","2-3_hearts_circles_C.png","","2-3_hearts_circles_C.png","Different",1630.69999998808,1,NA,NA,NA
"347","22123587","63","123","Cumulative","prime2","2-2_squares_triangles_C.png","","2-3_squares_triangles_C.png","Different",2202.59999996424,0,NA,NA,NA
"348","22123587","64","124","Cumulative","target","2-2_squares_hearts_C.png","","","Different",2807.19999998808,NA,NA,0,1
"349","22123587","191","125","Cumulative","filler","2-2_triangles_hearts_C.png","2-2_triangles_hearts_C.png","","",9242.60000002384,NA,1,NA,NA
"350","22123587","125","126","Distributive","prime1","2-3_triangles_circles_D.png","","2-3_triangles_circles_D.png","Equal",2055.19999998808,1,NA,NA,NA
"351","22123587","126","127","Distributive","prime2","2-3_squares_hearts_D.png","","2-3_squares_hearts_D.png","Equal",1594.90000003576,1,NA,NA,NA
"352","22123587","127","128","Distributive","target","2-3_hearts_triangles_C.png","","","Equal",1949.29999995232,NA,NA,0,2
"353","22123587","140","129","Control","prime1","1-2_heart_triangles.png","","1-2_heart_triangles.png","Equal",1387.70000004768,1,NA,NA,NA
"354","22123587","141","130","Control","prime2","1-3_circle_squares.png","","1-2_circle_squares.png","Equal",79.3000000119209,0,NA,NA,NA
"355","22123587","142","131","Control","target","2-2_triangles_circles_C.png","","","Equal",4949,NA,NA,0,1
"356","22123587","149","132","Control","prime1","1-2_square_triangles.png","","1-2_square_triangles.png","Different",1635.19999998808,1,NA,NA,NA
"357","22123587","150","133","Control","prime2","1-2_heart_circles.png","","1-2_heart_circles.png","Different",9323.20000004768,1,NA,NA,NA
"358","22123587","151","134","Control","target","2-3_squares_triangles_C.png","","","Different",1616.20000004768,NA,NA,0,2
"359","22123587","86","135","Distributive","prime1","2-2_squares_circles_D.png","","2-2_squares_circles_D.png","Equal",2451.80000001192,1,NA,NA,NA
"360","22123587","87","136","Distributive","prime2","2-2_hearts_triangles_D.png","","2-2_hearts_triangles_D.png","Equal",2138.79999995232,1,NA,NA,NA
"361","22123587","88","137","Distributive","target","2-2_triangles_squares_D.png","","","Equal",2176.10000002384,NA,NA,1,2
"362","22123587","207","138","Distributive","filler","2-2_squares_triangles_D.png","2-2_squares_triangles_D.png","","",10897.8999999762,NA,1,NA,NA
"363","22123587","176","139","Control","prime1","1-3_square_triangles.png","","1-3_square_triangles.png","Equal",2122.59999996424,1,NA,NA,NA
"364","22123587","177","140","Control","prime2","1-3_circle_hearts.png","","1-3_circle_hearts.png","Equal",9161.5,1,NA,NA,NA
"365","22123587","178","141","Control","target","2-3_circles_hearts_D.png","","","Equal",1822.30000001192,NA,NA,1,2
"366","22123587","59","142","Cumulative","prime1","2-2_circles_hearts_C.png","","2-2_circles_hearts_C.png","Different",8370,1,NA,NA,NA
"367","22123587","60","143","Cumulative","prime2","2-2_squares_triangles_C.png","","2-2_squares_triangles_C.png","Different",2002.59999996424,1,NA,NA,NA
"368","22123587","61","144","Cumulative","target","2-3_squares_triangles_C.png","","","Different",1520.89999997616,NA,NA,0,2
"369","22123587","74","145","Cumulative","prime1","2-3_triangles_circles_C.png","","2-3_triangles_circles_C.png","Equal",1765.30000001192,1,NA,NA,NA
"370","22123587","75","146","Cumulative","prime2","2-3_hearts_squares_C.png","","2-3_hearts_squares_C.png","Equal",1600.30000001192,1,NA,NA,NA
"371","22123587","76","147","Cumulative","target","2-3_hearts_triangles_C.png","","","Equal",2126.90000003576,NA,NA,0,2
"372","22123587","229","148","Distributive","filler","2-2_squares_hearts_C.png","2-3_squares_hearts_D.png","","",1006.09999996424,NA,0,NA,NA
"373","22123587","219","149","Distributive","filler","2-3_hearts_triangles_D.png","2-3_hearts_triangles_D.png","","",10165.8000000119,NA,1,NA,NA
"374","22123587","56","150","Cumulative","prime1","2-2_hearts_circles_C.png","","2-2_hearts_circles_C.png","Different",10349.5,1,NA,NA,NA
"375","22123587","57","151","Cumulative","prime2","2-2_triangles_squares_C.png","","2-2_triangles_squares_C.png","Different",2298.90000003576,1,NA,NA,NA
"376","22123587","58","152","Cumulative","target","2-3_circles_squares_D.png","","","Different",2277.60000002384,NA,NA,1,2
"377","22123587","213","153","Distributive","filler","2-2_hearts_triangles_D.png","2-2_hearts_triangles_D.png","","",11307,NA,1,NA,NA
"378","22123587","83","154","Cumulative","prime1","2-3_circles_hearts_C.png","","2-3_circles_hearts_C.png","Equal",8375.89999997616,1,NA,NA,NA
"379","22123587","84","155","Cumulative","prime2","2-3_squares_triangles_C.png","","2-3_squares_triangles_C.png","Equal",3207.59999996424,1,NA,NA,NA
"380","22123587","85","156","Cumulative","target","2-3_triangles_circles_C.png","","","Equal",11254.6000000238,NA,NA,0,2
"381","22123587","101","157","Distributive","prime1","2-2_triangles_squares_D.png","","2-2_triangles_squares_D.png","Different",13733,1,NA,NA,NA
"382","22123587","102","158","Distributive","prime2","2-2_hearts_circles_D.png","","2-2_hearts_circles_D.png","Different",20686.5,1,NA,NA,NA
"383","22123587","103","159","Distributive","target","2-3_circles_triangles_C.png","","","Different",2059.5,NA,NA,0,2
"384","22123587","217","160","Distributive","filler","2-2_triangles_circles_D.png","2-2_triangles_circles_D.png","","",1456.40000003576,NA,1,NA,NA
"385","22123587","113","161","Distributive","prime1","2-3_squares_circles_D.png","","2-3_squares_circles_D.png","Different",1700598.5,1,NA,NA,NA
"386","22123587","114","162","Distributive","prime2","2-3_hearts_triangles_D.png","","2-3_hearts_triangles_D.png","Different",2614,1,NA,NA,NA
"387","22123587","115","163","Distributive","target","2-2_circles_squares_C.png","","","Different",1826,NA,NA,0,2
"388","22123587","92","164","Distributive","prime1","2-2_triangles_hearts_D.png","","2-2_triangles_hearts_D.png","Equal",1738.19999998808,1,NA,NA,NA
"389","22123587","93","165","Distributive","prime2","2-2_squares_circles_D.png","","2-2_squares_circles_D.png","Equal",2593.30000001192,1,NA,NA,NA
"390","22123587","94","166","Distributive","target","2-2_squares_circles_D.png","","","Equal",2138.29999995232,NA,NA,1,2
"391","22123587","192","167","Cumulative","filler","2-2_circles_triangles_C.png","2-2_circles_triangles_C.png","","",31746.6999999881,NA,1,NA,NA
"392","22123587","95","168","Distributive","prime1","2-2_triangles_hearts_D.png","","2-2_triangles_hearts_D.png","Equal",2141.30000001192,1,NA,NA,NA
"393","22123587","96","169","Distributive","prime2","2-2_circles_squares_D.png","","2-2_circles_squares_D.png","Equal",2556.69999998808,1,NA,NA,NA
"394","22123587","97","170","Distributive","target","2-2_squares_circles_C.png","","","Equal",2356.79999995232,NA,NA,0,2
"395","22123587","104","171","Distributive","prime1","2-2_circles_hearts_D.png","","2-2_circles_hearts_D.png","Different",2507.39999997616,1,NA,NA,NA
"396","22123587","105","172","Distributive","prime2","2-2_squares_triangles_D.png","","2-2_squares_triangles_D.png","Different",2231,1,NA,NA,NA
"397","22123587","106","173","Distributive","target","2-3_squares_circles_D.png","","","Different",2765.40000003576,NA,NA,1,2
"398","22123587","211","174","Distributive","filler","2-3_hearts_triangles_C.png","2-2_hearts_triangles_D.png","","",2193.29999995232,NA,0,NA,NA
"399","22123587","205","175","Cumulative","filler","2-3_triangles_circles_C.png","2-3_triangles_circles_C.png","","",4264.09999996424,NA,1,NA,NA
"400","22123587","167","176","Control","prime1","1-3_circle_squares.png","","1-3_circle_squares.png","Different",1300.69999998808,1,NA,NA,NA
"401","22123587","168","177","Control","prime2","1-3_heart_triangles.png","","1-3_heart_triangles.png","Different",1894.70000004768,1,NA,NA,NA
"402","22123587","169","178","Control","target","2-2_triangles_hearts_D.png","","","Different",2570.90000003576,NA,NA,1,2
"403","22123587","189","179","Cumulative","filler","2-2_squares_circles_C.png","2-2_squares_circles_C.png","","",1911.89999997616,NA,1,NA,NA
"404","22123587","208","180","Distributive","filler","2-2_triangles_squares_D.png","2-2_triangles_squares_D.png","","",3363.90000003576,NA,1,NA,NA
"405","22123587","209","181","Distributive","filler","2-2_hearts_circles_D.png","2-2_hearts_circles_D.png","","",1499.80000001192,NA,1,NA,NA
"406","22123587","155","182","Control","prime1","1-2_triangle_hearts.png","","1-2_triangle_hearts.png","Different",1993.89999997616,1,NA,NA,NA
"407","22123587","156","183","Control","prime2","1-2_circle_squares.png","","1-2_circle_squares.png","Different",6654.80000001192,1,NA,NA,NA
"408","22123587","157","184","Control","target","2-3_circles_triangles_D.png","","","Different",3865.80000001192,NA,NA,1,2
"409","22123587","197","185","Cumulative","filler","2-3_hearts_squares_C.png","2-3_hearts_squares_C.png","","",2208.89999997616,NA,1,NA,NA
"410","22123587","228","186","Distributive","filler","2-3_triangles_circles_D.png","2-3_triangles_circles_D.png","","",2941.59999996424,NA,1,NA,NA
"411","22123587","146","187","Control","prime1","1-2_triangle_hearts.png","","1-2_triangle_hearts.png","Different",2672.90000003576,1,NA,NA,NA
"412","22123587","147","188","Control","prime2","1-2_circle_squares.png","","1-2_circle_squares.png","Different",2108.80000001192,1,NA,NA,NA
"413","22123587","148","189","Control","target","2-3_squares_triangles_D.png","","","Different",4748.59999996424,NA,NA,1,2
"414","22123587","134","190","Control","prime1","1-2_circle_squares.png","","1-2_circle_squares.png","Equal",1570,1,NA,NA,NA
"415","22123587","135","191","Control","prime2","1-2_triangle_hearts.png","","1-2_triangle_hearts.png","Equal",1685.80000001192,1,NA,NA,NA
"416","22123587","136","192","Control","target","2-2_squares_triangles_D.png","","","Equal",1892.20000004768,NA,NA,1,2
"417","22123587","179","193","Control","prime1","1-3_heart_triangles.png","","1-3_heart_triangles.png","Equal",1439.5,1,NA,NA,NA
"418","22123587","180","194","Control","prime2","1-3_square_circles.png","","1-3_square_circles.png","Equal",2023.10000002384,1,NA,NA,NA
"419","22123587","181","195","Control","target","2-3_circles_squares_C.png","","","Equal",3679.19999998808,NA,NA,0,2
"420","22123587","116","196","Distributive","prime1","2-3_triangles_squares_D.png","","2-3_triangles_squares_D.png","Different",146852.5,1,NA,NA,NA
"421","22123587","117","197","Distributive","prime2","2-3_hearts_circles_D.png","","2-3_hearts_circles_D.png","Different",2875.59999996424,1,NA,NA,NA
"422","22123587","118","198","Distributive","target","2-2_triangles_squares_D.png","","","Different",2363.80000001192,NA,NA,1,2
"423","22123587","161","199","Control","prime1","1-3_heart_triangles.png","","1-3_heart_triangles.png","Different",1266.80000001192,1,NA,NA,NA
"424","22123587","162","200","Control","prime2","1-3_circle_squares.png","","1-3_circle_squares.png","Different",1575.90000003576,1,NA,NA,NA
"425","22123587","163","201","Control","target","2-2_triangles_circles_C.png","","","Different",7744.89999997616,NA,NA,0,2
"426","22123587","201","202","Cumulative","filler","2-3_circles_hearts_C.png","2-3_circles_hearts_C.png","","",1486.40000003576,NA,1,NA,NA
"427","22123587","71","203","Cumulative","prime1","2-3_hearts_squares_C.png","","2-3_hearts_squares_C.png","Different",1379.30000001192,1,NA,NA,NA
"428","22123587","72","204","Cumulative","prime2","2-3_circles_triangles_C.png","","2-3_circles_triangles_C.png","Different",1957.5,1,NA,NA,NA
"429","22123587","73","205","Cumulative","target","2-2_circles_squares_C.png","","","Different",1279.69999998808,NA,NA,0,2
"430","22123587","214","206","Distributive","filler","2-2_hearts_squares_D.png","2-2_hearts_squares_D.png","","",1485.39999997616,NA,1,NA,NA
"431","22123587","210","207","Distributive","filler","2-3_squares_hearts_C.png","2-2_squares_hearts_D.png","","",1868.60000002384,NA,0,NA,NA
"432","22123587","226","208","Distributive","filler","2-3_hearts_triangles_D.png","2-3_hearts_triangles_D.png","","",2085.80000001192,NA,1,NA,NA
"433","22123587","198","209","Cumulative","filler","2-3_squares_triangles_C.png","2-3_squares_triangles_C.png","","",1973.89999997616,NA,1,NA,NA
"434","22123587","50","210","Cumulative","prime1","2-2_hearts_circles_C.png","","2-2_hearts_circles_C.png","Different",1767.30000001192,1,NA,NA,NA
"435","22123587","51","211","Cumulative","prime2","2-2_triangles_squares_C.png","","2-2_triangles_squares_C.png","Different",1464.70000004768,1,NA,NA,NA
"436","22123587","52","212","Cumulative","target","2-3_squares_circles_C.png","","","Different",2220.70000004768,NA,NA,0,2
"437","22123587","185","213","Cumulative","filler","2-2_squares_hearts_C.png","2-2_squares_hearts_C.png","","",4869.20000004768,NA,1,NA,NA
"438","22123587","222","214","Distributive","filler","2-3_squares_triangles_D.png","2-3_squares_triangles_D.png","","",3426.69999998808,NA,1,NA,NA
"439","22123587","119","215","Distributive","prime1","2-3_triangles_circles_D.png","","2-3_triangles_circles_D.png","Different",1130.80000001192,1,NA,NA,NA
"440","22123587","120","216","Distributive","prime2","2-3_squares_hearts_D.png","","2-3_squares_hearts_D.png","Different",1350.09999996424,1,NA,NA,NA
"441","22123587","121","217","Distributive","target","2-2_squares_circles_C.png","","","Different",1145.60000002384,NA,NA,0,2
"442","22123587","131","218","Distributive","prime1","2-3_hearts_triangles_D.png","","2-3_hearts_triangles_D.png","Equal",1237.30000001192,1,NA,NA,NA
"443","22123587","132","219","Distributive","prime2","2-3_circles_squares_D.png","","2-3_circles_squares_D.png","Equal",1566.69999998808,1,NA,NA,NA
"444","22123587","133","220","Distributive","target","2-3_squares_hearts_C.png","","","Equal",1588.09999996424,NA,NA,0,2
"445","22123587","89","221","Distributive","prime1","2-2_squares_hearts_D.png","","2-2_squares_hearts_D.png","Equal",1507.10000002384,1,NA,NA,NA
"446","22123587","90","222","Distributive","prime2","2-2_triangles_circles_D.png","","2-2_triangles_circles_D.png","Equal",1165.30000001192,1,NA,NA,NA
"447","22123587","91","223","Distributive","target","2-2_circles_hearts_D.png","","","Equal",1297.09999996424,NA,NA,1,2
"448","22123587","212","224","Distributive","filler","2-2_circles_triangles_D.png","2-2_circles_triangles_D.png","","",1549.69999998808,NA,1,NA,NA
"449","22123606","12","1","Baseline","target","2-2_circles_squares_D.png","","","",10037,NA,NA,1,NA
"450","22123606","26","2","Baseline","filler","1-2_square_triangles.png","1-2_square_triangles.png","","",4533,NA,1,NA,NA
"451","22123606","31","3","Baseline","filler","1-3_triangle_hearts.png","1-3_triangle_hearts.png","","",6422,NA,1,NA,NA
"452","22123606","15","4","Baseline","target","2-3_hearts_triangles_D.png","","","",8107,NA,NA,1,NA
"453","22123606","19","5","Baseline","target","2-3_squares_triangles_D.png","","","",8765,NA,NA,1,NA
"454","22123606","6","6","Baseline","target","2-2_triangles_squares_D.png","","","",6144,NA,NA,1,NA
"455","22123606","21","7","Baseline","filler","1-2_circle_squares.png","1-2_circle_squares.png","","",2605,NA,1,NA,NA
"456","22123606","27","8","Baseline","filler","1-2_triangle_hearts.png","1-2_triangle_hearts.png","","",2843,NA,1,NA,NA
"457","22123606","22","9","Baseline","filler","1-2_circle_hearts.png","1-2_circle_hearts.png","","",2890,NA,1,NA,NA
"458","22123606","23","10","Baseline","filler","1-2_heart_triangles.png","1-2_heart_triangles.png","","",4387,NA,1,NA,NA
"459","22123606","35","11","Baseline","filler","1-3_square_triangles.png","1-3_square_triangles.png","","",2857,NA,1,NA,NA
"460","22123606","28","12","Baseline","filler","1-2_triangle_hearts.png","1-2_triangle_hearts.png","","",2910,NA,1,NA,NA
"461","22123606","34","13","Baseline","filler","1-3_square_circles.png","1-3_square_circles.png","","",2919,NA,1,NA,NA
"462","22123606","18","14","Baseline","target","2-3_squares_triangles_D.png","","","",3767,NA,NA,1,NA
"463","22123606","33","15","Baseline","filler","1-3_circle_triangles.png","1-3_circle_triangles.png","","",2784,NA,1,NA,NA
"464","22123606","36","16","Baseline","filler","1-3_heart_triangles.png","1-3_heart_triangles.png","","",2989,NA,1,NA,NA
"465","22123606","20","17","Baseline","target","2-3_triangles_circles_D.png","","","",3528,NA,NA,1,NA
"466","22123606","24","18","Baseline","filler","1-2_square_triangles.png","1-2_square_triangles.png","","",4810,NA,1,NA,NA
"467","22123606","32","19","Baseline","filler","1-3_circle_squares.png","1-3_circle_squares.png","","",2545,NA,1,NA,NA
"468","22123606","30","20","Baseline","filler","1-3_heart_triangles.png","1-3_heart_triangles.png","","",3209,NA,1,NA,NA
"469","22123606","29","21","Baseline","filler","1-3_circle_hearts.png","1-3_circle_hearts.png","","",3221,NA,1,NA,NA
"470","22123606","10","22","Baseline","target","2-2_circles_triangles_D.png","","","",5640,NA,NA,1,NA
"471","22123606","8","23","Baseline","target","2-2_hearts_triangles_D.png","","","",3044,NA,NA,1,NA
"472","22123606","14","24","Baseline","target","2-3_circles_squares_D.png","","","",3234,NA,NA,1,NA
"473","22123606","11","25","Baseline","target","2-2_hearts_squares_D.png","","","",3069,NA,NA,1,NA
"474","22123606","25","26","Baseline","filler","1-2_triangle_hearts.png","1-2_triangle_hearts.png","","",2966,NA,1,NA,NA
"475","22123606","5","27","Baseline","target","2-2_circles_hearts_D.png","","","",9563,NA,NA,1,NA
"476","22123606","7","28","Baseline","target","2-2_squares_hearts_D.png","","","",3339,NA,NA,1,NA
"477","22123606","9","29","Baseline","target","2-2_hearts_squares_D.png","","","",8558,NA,NA,1,NA
"478","22123606","13","30","Baseline","target","2-3_squares_circles_D.png","","","",6004,NA,NA,1,NA
"479","22123606","17","31","Baseline","target","2-3_hearts_squares_D.png","","","",5566,NA,NA,1,NA
"480","22123606","16","32","Baseline","target","2-3_squares_triangles_D.png","","","",2444,NA,NA,1,NA
"481","22123606","77","33","Cumulative","prime1","2-3_squares_hearts_C.png","","2-3_squares_hearts_C.png","Equal",8743,1,NA,NA,NA
"482","22123606","78","34","Cumulative","prime2","2-3_triangles_circles_C.png","","2-3_triangles_circles_C.png","Equal",5866,1,NA,NA,NA
"483","22123606","79","35","Cumulative","target","2-3_squares_triangles_D.png","","","Equal",4824,NA,NA,1,2
"484","22123606","201","36","Cumulative","filler","2-3_circles_hearts_C.png","2-3_circles_hearts_C.png","","",12014,NA,1,NA,NA
"485","22123606","228","37","Distributive","filler","2-3_triangles_circles_D.png","2-3_triangles_circles_D.png","","",3223,NA,1,NA,NA
"486","22123606","195","38","Cumulative","filler","2-3_triangles_hearts_C.png","2-3_triangles_hearts_C.png","","",10315,NA,1,NA,NA
"487","22123606","86","39","Distributive","prime1","2-2_squares_circles_D.png","","2-2_squares_circles_D.png","Equal",7899,1,NA,NA,NA
"488","22123606","87","40","Distributive","prime2","2-2_hearts_triangles_D.png","","2-2_hearts_triangles_D.png","Equal",3746,1,NA,NA,NA
"489","22123606","88","41","Distributive","target","2-2_triangles_squares_D.png","","","Equal",4717,NA,NA,1,2
"490","22123606","227","42","Distributive","filler","2-3_squares_hearts_D.png","2-3_squares_hearts_D.png","","",2819,NA,1,NA,NA
"491","22123606","134","43","Control","prime1","1-2_circle_squares.png","","1-2_circle_squares.png","Equal",2458,1,NA,NA,NA
"492","22123606","135","44","Control","prime2","1-2_triangle_hearts.png","","1-2_triangle_hearts.png","Equal",2541,1,NA,NA,NA
"493","22123606","136","45","Control","target","2-2_squares_triangles_D.png","","","Equal",3034,NA,NA,1,2
"494","22123606","191","46","Cumulative","filler","2-2_triangles_hearts_C.png","2-2_triangles_hearts_C.png","","",11767,NA,1,NA,NA
"495","22123606","155","47","Control","prime1","1-2_triangle_hearts.png","","1-2_triangle_hearts.png","Different",1836,1,NA,NA,NA
"496","22123606","156","48","Control","prime2","1-2_circle_squares.png","","1-2_circle_squares.png","Different",2328,1,NA,NA,NA
"497","22123606","157","49","Control","target","2-3_circles_triangles_D.png","","","Different",5297,NA,NA,1,2
"498","22123606","146","50","Control","prime1","1-2_triangle_hearts.png","","1-2_triangle_hearts.png","Different",2707,1,NA,NA,NA
"499","22123606","147","51","Control","prime2","1-2_circle_squares.png","","1-2_circle_squares.png","Different",1859,1,NA,NA,NA
"500","22123606","148","52","Control","target","2-3_squares_triangles_D.png","","","Different",2632,NA,NA,1,2
"501","22123606","184","53","Cumulative","filler","2-2_squares_hearts_C.png","2-2_squares_hearts_C.png","","",8447,NA,1,NA,NA
"502","22123606","62","54","Cumulative","prime1","2-3_hearts_circles_C.png","","2-3_hearts_circles_C.png","Different",6660,1,NA,NA,NA
"503","22123606","63","55","Cumulative","prime2","2-3_squares_triangles_C.png","","2-3_squares_triangles_C.png","Different",5072,1,NA,NA,NA
"504","22123606","64","56","Cumulative","target","2-2_squares_hearts_D.png","","","Different",4426,NA,NA,1,2
"505","22123606","219","57","Distributive","filler","2-3_hearts_triangles_D.png","2-3_hearts_triangles_D.png","","",2856,NA,1,NA,NA
"506","22123606","68","58","Cumulative","prime1","2-3_squares_circles_C.png","","2-3_squares_circles_C.png","Different",3220,1,NA,NA,NA
"507","22123606","69","59","Cumulative","prime2","2-3_hearts_triangles_C.png","","2-3_hearts_triangles_C.png","Different",5184,1,NA,NA,NA
"508","22123606","70","60","Cumulative","target","2-2_hearts_triangles_D.png","","","Different",2659,NA,NA,1,2
"509","22123606","188","61","Cumulative","filler","2-2_hearts_triangles_C.png","2-2_hearts_triangles_C.png","","",9710,NA,1,NA,NA
"510","22123606","185","62","Cumulative","filler","2-2_squares_hearts_C.png","2-2_squares_hearts_C.png","","",3294,NA,1,NA,NA
"511","22123606","107","63","Distributive","prime1","2-2_hearts_squares_D.png","","2-2_hearts_squares_D.png","Different",4631,1,NA,NA,NA
"512","22123606","108","64","Distributive","prime2","2-2_triangles_circles_D.png","","2-2_triangles_circles_D.png","Different",3944,1,NA,NA,NA
"513","22123606","109","65","Distributive","target","2-3_squares_hearts_D.png","","","Different",6121,NA,NA,1,2
"514","22123606","187","66","Cumulative","filler","2-2_circles_squares_C.png","2-2_circles_squares_C.png","","",9080,NA,1,NA,NA
"515","22123606","204","67","Cumulative","filler","2-3_circles_triangles_C.png","2-3_circles_triangles_C.png","","",5431,NA,1,NA,NA
"516","22123606","222","68","Distributive","filler","2-3_squares_triangles_D.png","2-3_squares_triangles_D.png","","",4271,NA,1,NA,NA
"517","22123606","189","69","Cumulative","filler","2-2_squares_circles_C.png","2-2_squares_circles_C.png","","",3978,NA,1,NA,NA
"518","22123606","217","70","Distributive","filler","2-2_triangles_circles_D.png","2-2_triangles_circles_D.png","","",4060,NA,1,NA,NA
"519","22123606","208","71","Distributive","filler","2-2_triangles_squares_D.png","2-2_triangles_squares_D.png","","",3545,NA,1,NA,NA
"520","22123606","131","72","Distributive","prime1","2-3_hearts_triangles_D.png","","2-3_hearts_triangles_D.png","Equal",3579,1,NA,NA,NA
"521","22123606","132","73","Distributive","prime2","2-3_circles_squares_D.png","","2-3_circles_squares_D.png","Equal",2493,1,NA,NA,NA
"522","22123606","133","74","Distributive","target","2-3_squares_hearts_D.png","","","Equal",2946,NA,NA,1,2
"523","22123606","194","75","Cumulative","filler","2-3_hearts_triangles_C.png","2-3_hearts_triangles_C.png","","",4696,NA,1,NA,NA
"524","22123606","193","76","Cumulative","filler","2-2_circles_triangles_C.png","2-2_circles_triangles_C.png","","",5245,NA,1,NA,NA
"525","22123606","183","77","Cumulative","filler","2-2_hearts_squares_C.png","2-2_hearts_squares_C.png","","",10796,NA,1,NA,NA
"526","22123606","125","78","Distributive","prime1","2-3_triangles_circles_D.png","","2-3_triangles_circles_D.png","Equal",2128,1,NA,NA,NA
"527","22123606","126","79","Distributive","prime2","2-3_squares_hearts_D.png","","2-3_squares_hearts_D.png","Equal",2921,1,NA,NA,NA
"528","22123606","127","80","Distributive","target","2-3_hearts_triangles_D.png","","","Equal",6151,NA,NA,1,2
"529","22123606","41","81","Cumulative","prime1","2-2_triangles_hearts_C.png","","2-2_triangles_hearts_C.png","Equal",6760,1,NA,NA,NA
"530","22123606","42","82","Cumulative","prime2","2-2_squares_circles_C.png","","2-2_squares_circles_C.png","Equal",7349,1,NA,NA,NA
"531","22123606","43","83","Cumulative","target","2-2_hearts_squares_D.png","","","Equal",2189,NA,NA,1,2
"532","22123606","218","84","Distributive","filler","2-3_triangles_hearts_D.png","2-3_triangles_hearts_D.png","","",3006,NA,1,NA,NA
"533","22123606","119","85","Distributive","prime1","2-3_triangles_circles_D.png","","2-3_triangles_circles_D.png","Different",2920,1,NA,NA,NA
"534","22123606","120","86","Distributive","prime2","2-3_squares_hearts_D.png","","2-3_squares_hearts_D.png","Different",2578,1,NA,NA,NA
"535","22123606","121","87","Distributive","target","2-2_squares_circles_D.png","","","Different",3063,NA,NA,1,2
"536","22123606","53","88","Cumulative","prime1","2-2_squares_triangles_C.png","","2-2_squares_triangles_C.png","Different",4563,1,NA,NA,NA
"537","22123606","54","89","Cumulative","prime2","2-2_hearts_circles_C.png","","2-2_hearts_circles_C.png","Different",4674,1,NA,NA,NA
"538","22123606","55","90","Cumulative","target","2-3_hearts_squares_D.png","","","Different",2101,NA,NA,1,2
"539","22123606","209","91","Distributive","filler","2-2_hearts_circles_D.png","2-2_hearts_circles_D.png","","",3557,NA,1,NA,NA
"540","22123606","186","92","Cumulative","filler","2-2_circles_hearts_C.png","2-2_circles_hearts_C.png","","",3638,NA,1,NA,NA
"541","22123606","192","93","Cumulative","filler","2-2_circles_triangles_C.png","2-2_circles_triangles_C.png","","",3474,NA,1,NA,NA
"542","22123606","74","94","Cumulative","prime1","2-3_triangles_circles_C.png","","2-3_triangles_circles_C.png","Equal",7252,1,NA,NA,NA
"543","22123606","75","95","Cumulative","prime2","2-3_hearts_squares_C.png","","2-3_hearts_squares_C.png","Equal",3379,1,NA,NA,NA
"544","22123606","76","96","Cumulative","target","2-3_hearts_triangles_D.png","","","Equal",4446,NA,NA,1,2
"545","22123606","176","97","Control","prime1","1-3_square_triangles.png","","1-3_square_triangles.png","Equal",2543,1,NA,NA,NA
"546","22123606","177","98","Control","prime2","1-3_circle_hearts.png","","1-3_circle_hearts.png","Equal",2411,1,NA,NA,NA
"547","22123606","178","99","Control","target","2-3_circles_hearts_D.png","","","Equal",3624,NA,NA,1,2
"548","22123606","205","100","Cumulative","filler","2-3_triangles_circles_C.png","2-3_triangles_circles_C.png","","",3738,NA,1,NA,NA
"549","22123606","122","101","Distributive","prime1","2-3_hearts_circles_D.png","","2-3_hearts_circles_D.png","Equal",2911,1,NA,NA,NA
"550","22123606","123","102","Distributive","prime2","2-3_triangles_squares_D.png","","2-3_triangles_squares_D.png","Equal",3906,1,NA,NA,NA
"551","22123606","124","103","Distributive","target","2-3_hearts_circles_D.png","","","Equal",2611,NA,NA,1,2
"552","22123606","143","104","Control","prime1","1-2_square_triangles.png","","1-2_square_triangles.png","Equal",2343,1,NA,NA,NA
"553","22123606","144","105","Control","prime2","1-2_circle_hearts.png","","1-2_circle_hearts.png","Equal",1851,1,NA,NA,NA
"554","22123606","145","106","Control","target","2-2_hearts_circles_D.png","","","Equal",3012,NA,NA,1,2
"555","22123606","137","107","Control","prime1","1-2_circle_hearts.png","","1-2_circle_hearts.png","Equal",2880,1,NA,NA,NA
"556","22123606","138","108","Control","prime2","1-2_square_triangles.png","","1-2_square_triangles.png","Equal",1931,1,NA,NA,NA
"557","22123606","139","109","Control","target","2-2_hearts_triangles_D.png","","","Equal",3212,NA,NA,1,2
"558","22123606","196","110","Cumulative","filler","2-3_squares_hearts_C.png","2-3_squares_hearts_C.png","","",4214,NA,1,NA,NA
"559","22123606","158","111","Control","prime1","1-3_circle_hearts.png","","1-3_circle_hearts.png","Different",2019,1,NA,NA,NA
"560","22123606","159","112","Control","prime2","1-3_triangle_squares.png","","1-3_triangle_squares.png","Different",2084,1,NA,NA,NA
"561","22123606","160","113","Control","target","2-2_circles_hearts_D.png","","","Different",2334,NA,NA,1,2
"562","22123606","202","114","Cumulative","filler","2-3_hearts_triangles_C.png","2-3_hearts_triangles_C.png","","",3486,NA,1,NA,NA
"563","22123606","211","115","Distributive","filler","2-3_hearts_triangles_C.png","2-2_hearts_triangles_D.png","","",5512,NA,0,NA,NA
"564","22123606","167","116","Control","prime1","1-3_circle_squares.png","","1-3_circle_squares.png","Different",1688,1,NA,NA,NA
"565","22123606","168","117","Control","prime2","1-3_heart_triangles.png","","1-3_heart_triangles.png","Different",2153,1,NA,NA,NA
"566","22123606","169","118","Control","target","2-2_triangles_hearts_D.png","","","Different",2841,NA,NA,1,2
"567","22123606","44","119","Cumulative","prime1","2-2_squares_circles_C.png","","2-2_squares_circles_C.png","Equal",4490,1,NA,NA,NA
"568","22123606","45","120","Cumulative","prime2","2-2_hearts_triangles_C.png","","2-2_hearts_triangles_C.png","Equal",3946,1,NA,NA,NA
"569","22123606","46","121","Cumulative","target","2-2_triangles_squares_D.png","","","Equal",3038,NA,NA,1,2
"570","22123606","223","122","Distributive","filler","2-3_circles_hearts_D.png","2-3_circles_hearts_D.png","","",2600,NA,1,NA,NA
"571","22123606","206","123","Distributive","filler","2-2_triangles_circles_D.png","2-2_triangles_circles_D.png","","",2933,NA,1,NA,NA
"572","22123606","80","124","Cumulative","prime1","2-3_hearts_circles_C.png","","2-3_hearts_circles_C.png","Equal",3090,1,NA,NA,NA
"573","22123606","81","125","Cumulative","prime2","2-3_triangles_squares_C.png","","2-3_triangles_squares_C.png","Equal",2764,1,NA,NA,NA
"574","22123606","82","126","Cumulative","target","2-3_squares_triangles_D.png","","","Equal",2763,NA,NA,1,2
"575","22123606","89","127","Distributive","prime1","2-2_squares_hearts_D.png","","2-2_squares_hearts_D.png","Equal",2260,1,NA,NA,NA
"576","22123606","90","128","Distributive","prime2","2-2_triangles_circles_D.png","","2-2_triangles_circles_D.png","Equal",3282,1,NA,NA,NA
"577","22123606","91","129","Distributive","target","2-2_circles_hearts_D.png","","","Equal",2165,NA,NA,1,2
"578","22123606","197","130","Cumulative","filler","2-3_hearts_squares_C.png","2-3_hearts_squares_C.png","","",4010,NA,1,NA,NA
"579","22123606","214","131","Distributive","filler","2-2_hearts_squares_D.png","2-2_hearts_squares_D.png","","",3894,NA,1,NA,NA
"580","22123606","113","132","Distributive","prime1","2-3_squares_circles_D.png","","2-3_squares_circles_D.png","Different",4648,1,NA,NA,NA
"581","22123606","114","133","Distributive","prime2","2-3_hearts_triangles_D.png","","2-3_hearts_triangles_D.png","Different",2768,1,NA,NA,NA
"582","22123606","115","134","Distributive","target","2-2_circles_squares_D.png","","","Different",2604,NA,NA,1,2
"583","22123606","101","135","Distributive","prime1","2-2_triangles_squares_D.png","","2-2_triangles_squares_D.png","Different",4929,1,NA,NA,NA
"584","22123606","102","136","Distributive","prime2","2-2_hearts_circles_D.png","","2-2_hearts_circles_D.png","Different",3010,1,NA,NA,NA
"585","22123606","103","137","Distributive","target","2-3_circles_triangles_D.png","","","Different",8350,NA,NA,1,2
"586","22123606","213","138","Distributive","filler","2-2_hearts_triangles_D.png","2-2_hearts_triangles_D.png","","",4469,NA,1,NA,NA
"587","22123606","92","139","Distributive","prime1","2-2_triangles_hearts_D.png","","2-2_triangles_hearts_D.png","Equal",3155,1,NA,NA,NA
"588","22123606","93","140","Distributive","prime2","2-2_squares_circles_D.png","","2-2_squares_circles_D.png","Equal",2572,1,NA,NA,NA
"589","22123606","94","141","Distributive","target","2-2_squares_circles_D.png","","","Equal",9677,NA,NA,1,2
"590","22123606","170","142","Control","prime1","1-3_circle_triangles.png","","1-3_circle_triangles.png","Equal",2565,1,NA,NA,NA
"591","22123606","171","143","Control","prime2","1-3_heart_squares.png","","1-3_heart_squares.png","Equal",4297,1,NA,NA,NA
"592","22123606","172","144","Control","target","2-3_squares_triangles_D.png","","","Equal",2470,NA,NA,1,2
"593","22123606","190","145","Cumulative","filler","2-2_squares_triangles_C.png","2-2_squares_triangles_C.png","","",3473,NA,1,NA,NA
"594","22123606","140","146","Control","prime1","1-2_heart_triangles.png","","1-2_heart_triangles.png","Equal",2122,1,NA,NA,NA
"595","22123606","141","147","Control","prime2","1-2_circle_squares.png","","1-2_circle_squares.png","Equal",1964,1,NA,NA,NA
"596","22123606","142","148","Control","target","2-2_triangles_circles_D.png","","","Equal",2887,NA,NA,1,2
"597","22123606","83","149","Cumulative","prime1","2-3_circles_hearts_C.png","","2-3_circles_hearts_C.png","Equal",5878,1,NA,NA,NA
"598","22123606","84","150","Cumulative","prime2","2-3_squares_triangles_C.png","","2-3_squares_triangles_C.png","Equal",3968,1,NA,NA,NA
"599","22123606","85","151","Cumulative","target","2-3_triangles_circles_D.png","","","Equal",3110,NA,NA,1,2
"600","22123606","38","152","Cumulative","prime1","2-2_hearts_triangles_C.png","","2-2_hearts_triangles_C.png","Equal",7205,1,NA,NA,NA
"601","22123606","39","153","Cumulative","prime2","2-2_circles_squares_C.png","","2-2_circles_squares_C.png","Equal",3101,1,NA,NA,NA
"602","22123606","40","154","Cumulative","target","2-2_circles_hearts_D.png","","","Equal",8357,NA,NA,1,2
"603","22123606","128","155","Distributive","prime1","2-3_hearts_squares_D.png","","2-3_hearts_squares_D.png","Equal",2616,1,NA,NA,NA
"604","22123606","129","156","Distributive","prime2","2-3_circles_triangles_D.png","","2-3_circles_triangles_D.png","Equal",2946,1,NA,NA,NA
"605","22123606","130","157","Distributive","target","2-3_triangles_circles_D.png","","","Equal",2479,NA,NA,1,2
"606","22123606","161","158","Control","prime1","1-3_heart_triangles.png","","1-3_heart_triangles.png","Different",1990,1,NA,NA,NA
"607","22123606","162","159","Control","prime2","1-3_circle_squares.png","","1-3_circle_squares.png","Different",1883,1,NA,NA,NA
"608","22123606","163","160","Control","target","2-2_triangles_circles_D.png","","","Different",2557,NA,NA,1,2
"609","22123606","164","161","Control","prime1","1-3_triangle_hearts.png","","1-3_triangle_hearts.png","Different",2250,1,NA,NA,NA
"610","22123606","165","162","Control","prime2","1-3_circle_squares.png","","1-3_circle_squares.png","Different",2051,1,NA,NA,NA
"611","22123606","166","163","Control","target","2-2_hearts_circles_D.png","","","Different",2381,NA,NA,1,2
"612","22123606","199","164","Cumulative","filler","2-3_squares_hearts_C.png","2-3_squares_hearts_C.png","","",3452,NA,1,NA,NA
"613","22123606","229","165","Distributive","filler","2-3_squares_hearts_D.png","2-3_squares_hearts_D.png","","",2869,NA,1,NA,NA
"614","22123606","152","166","Control","prime1","1-2_triangle_hearts.png","","1-2_triangle_hearts.png","Different",2760,1,NA,NA,NA
"615","22123606","153","167","Control","prime2","1-2_circle_squares.png","","1-2_circle_squares.png","Different",2062,1,NA,NA,NA
"616","22123606","154","168","Control","target","2-3_circles_squares_D.png","","","Different",3241,NA,NA,1,2
"617","22123606","50","169","Cumulative","prime1","2-2_hearts_circles_C.png","","2-2_hearts_circles_C.png","Different",4718,1,NA,NA,NA
"618","22123606","51","170","Cumulative","prime2","2-2_triangles_squares_C.png","","2-2_triangles_squares_C.png","Different",3282,1,NA,NA,NA
"619","22123606","52","171","Cumulative","target","2-3_squares_circles_D.png","","","Different",2683,NA,NA,1,2
"620","22123606","198","172","Cumulative","filler","2-3_squares_triangles_C.png","2-3_squares_triangles_C.png","","",4124,NA,1,NA,NA
"621","22123606","212","173","Distributive","filler","2-2_circles_triangles_D.png","2-2_circles_triangles_D.png","","",2868,NA,1,NA,NA
"622","22123606","47","174","Cumulative","prime1","2-2_squares_circles_C.png","","2-2_squares_circles_C.png","Equal",3939,1,NA,NA,NA
"623","22123606","48","175","Cumulative","prime2","2-2_triangles_hearts_C.png","","2-2_triangles_hearts_C.png","Equal",6026,1,NA,NA,NA
"624","22123606","49","176","Cumulative","target","2-2_circles_triangles_D.png","","","Equal",2101,NA,NA,1,2
"625","22123606","104","177","Distributive","prime1","2-2_circles_hearts_D.png","","2-2_circles_hearts_D.png","Different",2408,1,NA,NA,NA
"626","22123606","105","178","Distributive","prime2","2-2_squares_triangles_D.png","","2-2_squares_triangles_D.png","Different",3091,1,NA,NA,NA
"627","22123606","106","179","Distributive","target","2-3_squares_circles_D.png","","","Different",2453,NA,NA,1,2
"628","22123606","173","180","Control","prime1","1-3_square_circles.png","","1-3_square_circles.png","Equal",2104,1,NA,NA,NA
"629","22123606","174","181","Control","prime2","1-3_triangle_hearts.png","","1-3_triangle_hearts.png","Equal",2178,1,NA,NA,NA
"630","22123606","175","182","Control","target","2-3_hearts_circles_D.png","","","Equal",2309,NA,NA,1,2
"631","22123606","179","183","Control","prime1","1-3_heart_triangles.png","","1-3_heart_triangles.png","Equal",3099,1,NA,NA,NA
"632","22123606","180","184","Control","prime2","1-3_square_circles.png","","1-3_square_circles.png","Equal",2152,1,NA,NA,NA
"633","22123606","181","185","Control","target","2-3_circles_squares_D.png","","","Equal",6657,NA,NA,1,2
"634","22123606","149","186","Control","prime1","1-2_square_triangles.png","","1-2_square_triangles.png","Different",3894,1,NA,NA,NA
"635","22123606","150","187","Control","prime2","1-2_heart_circles.png","","1-2_heart_circles.png","Different",2533,1,NA,NA,NA
"636","22123606","151","188","Control","target","2-3_squares_triangles_D.png","","","Different",2455,NA,NA,1,2
"637","22123606","210","189","Distributive","filler","2-2_squares_hearts_D.png","2-2_squares_hearts_D.png","","",2953,NA,1,NA,NA
"638","22123606","182","190","Cumulative","filler","2-2_circles_triangles_C.png","2-2_circles_triangles_C.png","","",4217,NA,1,NA,NA
"639","22123606","71","191","Cumulative","prime1","2-3_hearts_squares_C.png","","2-3_hearts_squares_C.png","Different",3219,1,NA,NA,NA
"640","22123606","72","192","Cumulative","prime2","2-3_circles_triangles_C.png","","2-3_circles_triangles_C.png","Different",3600,1,NA,NA,NA
"641","22123606","73","193","Cumulative","target","2-2_circles_squares_D.png","","","Different",3007,NA,NA,1,2
"642","22123606","110","194","Distributive","prime1","2-3_triangles_circles_D.png","","2-3_triangles_circles_D.png","Different",3101,1,NA,NA,NA
"643","22123606","111","195","Distributive","prime2","2-3_squares_hearts_D.png","","2-3_squares_hearts_D.png","Different",2691,1,NA,NA,NA
"644","22123606","112","196","Distributive","target","2-2_squares_hearts_D.png","","","Different",2136,NA,NA,1,2
"645","22123606","216","197","Distributive","filler","2-2_squares_hearts_D.png","2-2_squares_hearts_D.png","","",3795,NA,1,NA,NA
"646","22123606","226","198","Distributive","filler","2-3_hearts_triangles_D.png","2-3_hearts_triangles_D.png","","",2917,NA,1,NA,NA
"647","22123606","215","199","Distributive","filler","2-2_squares_triangles_D.png","2-2_squares_triangles_D.png","","",3769,NA,1,NA,NA
"648","22123606","207","200","Distributive","filler","2-2_squares_triangles_D.png","2-2_squares_triangles_D.png","","",4181,NA,1,NA,NA
"649","22123606","98","201","Distributive","prime1","2-2_circles_hearts_D.png","","2-2_circles_hearts_D.png","Different",2048,1,NA,NA,NA
"650","22123606","99","202","Distributive","prime2","2-2_squares_triangles_D.png","","2-2_squares_triangles_D.png","Different",4096,1,NA,NA,NA
"651","22123606","100","203","Distributive","target","2-3_triangles_circles_D.png","","","Different",3750,NA,NA,1,2
"652","22123606","59","204","Cumulative","prime1","2-2_circles_hearts_C.png","","2-2_circles_hearts_C.png","Different",4231,1,NA,NA,NA
"653","22123606","60","205","Cumulative","prime2","2-2_squares_triangles_C.png","","2-2_squares_triangles_C.png","Different",3277,1,NA,NA,NA
"654","22123606","61","206","Cumulative","target","2-3_squares_triangles_D.png","","","Different",2212,NA,NA,1,2
"655","22123606","200","207","Cumulative","filler","2-3_circles_triangles_C.png","2-3_circles_triangles_C.png","","",3636,NA,1,NA,NA
"656","22123606","56","208","Cumulative","prime1","2-2_hearts_circles_C.png","","2-2_hearts_circles_C.png","Different",3523,1,NA,NA,NA
"657","22123606","57","209","Cumulative","prime2","2-2_triangles_squares_C.png","","2-2_triangles_squares_C.png","Different",4627,1,NA,NA,NA
"658","22123606","58","210","Cumulative","target","2-3_circles_squares_D.png","","","Different",2203,NA,NA,1,2
"659","22123606","225","211","Distributive","filler","2-3_hearts_circles_D.png","2-3_hearts_circles_D.png","","",2875,NA,1,NA,NA
"660","22123606","220","212","Distributive","filler","2-3_hearts_triangles_D.png","2-3_hearts_triangles_D.png","","",4314,NA,1,NA,NA
"661","22123606","224","213","Distributive","filler","2-3_squares_triangles_D.png","2-3_squares_triangles_D.png","","",2948,NA,1,NA,NA
"662","22123606","95","214","Distributive","prime1","2-2_triangles_hearts_D.png","","2-2_triangles_hearts_D.png","Equal",2930,1,NA,NA,NA
"663","22123606","96","215","Distributive","prime2","2-2_circles_squares_D.png","","2-2_circles_squares_D.png","Equal",2400,1,NA,NA,NA
"664","22123606","97","216","Distributive","target","2-2_squares_circles_D.png","","","Equal",2760,NA,NA,1,2
"665","22123606","203","217","Cumulative","filler","2-3_circles_triangles_C.png","2-3_circles_triangles_C.png","","",2654,NA,1,NA,NA
"666","22123606","221","218","Distributive","filler","2-3_circles_hearts_D.png","2-3_circles_hearts_D.png","","",2232,NA,1,NA,NA
"667","22123606","65","219","Cumulative","prime1","2-3_hearts_circles_C.png","","2-3_hearts_circles_C.png","Different",3899,1,NA,NA,NA
"668","22123606","66","220","Cumulative","prime2","2-3_triangles_squares_C.png","","2-3_triangles_squares_C.png","Different",2606,1,NA,NA,NA
"669","22123606","67","221","Cumulative","target","2-2_hearts_squares_D.png","","","Different",2186,NA,NA,1,2
"670","22123606","116","222","Distributive","prime1","2-3_triangles_squares_D.png","","2-3_triangles_squares_D.png","Different",2611,1,NA,NA,NA
"671","22123606","117","223","Distributive","prime2","2-3_hearts_circles_D.png","","2-3_hearts_circles_D.png","Different",2745,1,NA,NA,NA
"672","22123606","118","224","Distributive","target","2-2_triangles_squares_D.png","","","Different",8082,NA,NA,1,2
"673","22123618","25","1","Baseline","filler","1-2_triangle_hearts.png","1-2_triangle_hearts.png","","",1677,NA,1,NA,NA
"674","22123618","15","2","Baseline","target","2-3_hearts_triangles_D.png","","","",2697,NA,NA,1,NA
"675","22123618","33","3","Baseline","filler","1-3_circle_triangles.png","1-3_circle_triangles.png","","",2501,NA,1,NA,NA
"676","22123618","27","4","Baseline","filler","1-2_triangle_hearts.png","1-2_triangle_hearts.png","","",1951,NA,1,NA,NA
"677","22123618","16","5","Baseline","target","2-3_squares_triangles_C.png","","","",6858,NA,NA,0,NA
"678","22123618","26","6","Baseline","filler","1-2_square_triangles.png","1-2_square_triangles.png","","",4179,NA,1,NA,NA
"679","22123618","28","7","Baseline","filler","1-2_triangle_hearts.png","1-2_triangle_hearts.png","","",2258,NA,1,NA,NA
"680","22123618","17","8","Baseline","target","2-3_hearts_squares_C.png","","","",1946,NA,NA,0,NA
"681","22123618","36","9","Baseline","filler","1-3_heart_triangles.png","1-3_heart_triangles.png","","",3332,NA,1,NA,NA
"682","22123618","13","10","Baseline","target","2-3_squares_circles_C.png","","","",2127,NA,NA,0,NA
"683","22123618","6","11","Baseline","target","2-2_triangles_squares_C.png","","","",6625.99999999999,NA,NA,0,NA
"684","22123618","11","12","Baseline","target","2-2_hearts_squares_C.png","","","",2560.99999999999,NA,NA,0,NA
"685","22123618","10","13","Baseline","target","2-2_circles_triangles_C.png","","","",2363,NA,NA,0,NA
"686","22123618","5","14","Baseline","target","2-2_circles_hearts_C.png","","","",4137,NA,NA,0,NA
"687","22123618","35","15","Baseline","filler","1-3_square_triangles.png","1-3_square_triangles.png","","",3452,NA,1,NA,NA
"688","22123618","24","16","Baseline","filler","1-2_square_triangles.png","1-2_square_triangles.png","","",2486,NA,1,NA,NA
"689","22123618","34","17","Baseline","filler","1-3_square_circles.png","1-3_square_circles.png","","",2602,NA,1,NA,NA
"690","22123618","18","18","Baseline","target","2-3_squares_triangles_C.png","","","",3476.99999999999,NA,NA,0,NA
"691","22123618","22","19","Baseline","filler","1-2_circle_hearts.png","1-2_circle_hearts.png","","",1950.00000000001,NA,1,NA,NA
"692","22123618","14","20","Baseline","target","2-3_circles_squares_C.png","","","",2879,NA,NA,0,NA
"693","22123618","7","21","Baseline","target","2-2_squares_hearts_C.png","","","",2373,NA,NA,0,NA
"694","22123618","9","22","Baseline","target","2-2_hearts_squares_C.png","","","",3545,NA,NA,0,NA
"695","22123618","12","23","Baseline","target","2-2_circles_squares_C.png","","","",1991,NA,NA,0,NA
"696","22123618","21","24","Baseline","filler","1-2_circle_squares.png","1-2_circle_squares.png","","",1633,NA,1,NA,NA
"697","22123618","31","25","Baseline","filler","1-3_triangle_hearts.png","1-3_triangle_hearts.png","","",4716,NA,1,NA,NA
"698","22123618","32","26","Baseline","filler","1-3_circle_squares.png","1-3_circle_squares.png","","",2054,NA,1,NA,NA
"699","22123618","29","27","Baseline","filler","1-3_circle_hearts.png","1-3_circle_hearts.png","","",4639,NA,1,NA,NA
"700","22123618","20","28","Baseline","target","2-3_triangles_circles_C.png","","","",2534,NA,NA,0,NA
"701","22123618","30","29","Baseline","filler","1-3_heart_triangles.png","1-3_heart_triangles.png","","",1506,NA,1,NA,NA
"702","22123618","23","30","Baseline","filler","1-2_heart_triangles.png","1-2_heart_triangles.png","","",1675,NA,1,NA,NA
"703","22123618","19","31","Baseline","target","2-3_squares_triangles_C.png","","","",1937.99999999999,NA,NA,0,NA
"704","22123618","8","32","Baseline","target","2-2_hearts_triangles_C.png","","","",5799,NA,NA,0,NA
"705","22123618","86","33","Distributive","prime1","2-2_squares_circles_D.png","","2-2_squares_circles_D.png","Equal",7059,1,NA,NA,NA
"706","22123618","87","34","Distributive","prime2","2-2_hearts_triangles_D.png","","2-2_hearts_triangles_D.png","Equal",4059.00000000003,1,NA,NA,NA
"707","22123618","88","35","Distributive","target","2-2_triangles_squares_C.png","","","Equal",2382,NA,NA,0,2
"708","22123618","167","36","Control","prime1","1-3_circle_squares.png","","1-3_circle_squares.png","Different",2583,1,NA,NA,NA
"709","22123618","168","37","Control","prime2","1-3_heart_triangles.png","","1-3_heart_triangles.png","Different",2656.00000000003,1,NA,NA,NA
"710","22123618","169","38","Control","target","2-2_triangles_hearts_C.png","","","Different",4506,NA,NA,0,2
"711","22123618","188","39","Cumulative","filler","2-2_hearts_triangles_C.png","2-2_hearts_triangles_C.png","","",3594.00000000003,NA,1,NA,NA
"712","22123618","224","40","Distributive","filler","2-3_squares_triangles_D.png","2-3_squares_triangles_D.png","","",4649.99999999997,NA,1,NA,NA
"713","22123618","104","41","Distributive","prime1","2-2_circles_hearts_D.png","","2-2_circles_hearts_D.png","Different",3365,1,NA,NA,NA
"714","22123618","105","42","Distributive","prime2","2-2_squares_triangles_D.png","","2-2_squares_triangles_D.png","Different",2461,1,NA,NA,NA
"715","22123618","106","43","Distributive","target","2-3_squares_circles_C.png","","","Different",3221,NA,NA,0,2
"716","22123618","212","44","Distributive","filler","2-2_circles_triangles_D.png","2-2_circles_triangles_D.png","","",4112,NA,1,NA,NA
"717","22123618","116","45","Distributive","prime1","2-3_triangles_squares_D.png","","2-3_triangles_squares_D.png","Different",4083,1,NA,NA,NA
"718","22123618","117","46","Distributive","prime2","2-3_hearts_circles_D.png","","2-3_hearts_circles_D.png","Different",3439,1,NA,NA,NA
"719","22123618","118","47","Distributive","target","2-2_triangles_squares_C.png","","","Different",1656,NA,NA,0,2
"720","22123618","220","48","Distributive","filler","2-3_hearts_triangles_D.png","2-3_hearts_triangles_D.png","","",2648.00000000003,NA,1,NA,NA
"721","22123618","68","49","Cumulative","prime1","2-3_squares_circles_C.png","","2-3_squares_circles_C.png","Different",3943,1,NA,NA,NA
"722","22123618","69","50","Cumulative","prime2","2-3_hearts_triangles_C.png","","2-3_hearts_triangles_C.png","Different",2770,1,NA,NA,NA
"723","22123618","70","51","Cumulative","target","2-2_hearts_triangles_C.png","","","Different",6961.99999999997,NA,NA,0,2
"724","22123618","59","52","Cumulative","prime1","2-2_circles_hearts_C.png","","2-2_circles_hearts_C.png","Different",3563,1,NA,NA,NA
"725","22123618","60","53","Cumulative","prime2","2-2_squares_triangles_C.png","","2-2_squares_triangles_C.png","Different",2775,1,NA,NA,NA
"726","22123618","61","54","Cumulative","target","2-3_squares_triangles_C.png","","","Different",3778.99999999997,NA,NA,0,2
"727","22123618","216","55","Distributive","filler","2-2_squares_hearts_D.png","2-2_squares_hearts_D.png","","",35025,NA,1,NA,NA
"728","22123618","122","56","Distributive","prime1","2-3_hearts_circles_D.png","","2-3_hearts_circles_D.png","Equal",14157.9999999999,1,NA,NA,NA
"729","22123618","123","57","Distributive","prime2","2-3_triangles_squares_D.png","","2-3_triangles_squares_D.png","Equal",7545.99999999994,1,NA,NA,NA
"730","22123618","124","58","Distributive","target","2-3_hearts_circles_C.png","","","Equal",14558,NA,NA,0,2
"731","22123618","71","59","Cumulative","prime1","2-3_hearts_squares_C.png","","2-3_hearts_squares_C.png","Different",26297,1,NA,NA,NA
"732","22123618","72","60","Cumulative","prime2","2-3_circles_triangles_C.png","","2-3_circles_triangles_C.png","Different",2384,1,NA,NA,NA
"733","22123618","73","61","Cumulative","target","2-2_circles_squares_C.png","","","Different",1817,NA,NA,0,2
"734","22123618","128","62","Distributive","prime1","2-3_hearts_squares_D.png","","2-3_hearts_squares_D.png","Equal",2380,1,NA,NA,NA
"735","22123618","129","63","Distributive","prime2","2-3_circles_triangles_D.png","","2-3_circles_triangles_D.png","Equal",3513.99999999994,1,NA,NA,NA
"736","22123618","130","64","Distributive","target","2-3_triangles_circles_C.png","","","Equal",2080,NA,NA,0,2
"737","22123618","113","65","Distributive","prime1","2-3_squares_circles_D.png","","2-3_squares_circles_D.png","Different",2616,1,NA,NA,NA
"738","22123618","114","66","Distributive","prime2","2-3_hearts_triangles_D.png","","2-3_hearts_triangles_D.png","Different",2686,1,NA,NA,NA
"739","22123618","115","67","Distributive","target","2-2_circles_squares_C.png","","","Different",2844,NA,NA,0,2
"740","22123618","131","68","Distributive","prime1","2-3_hearts_triangles_D.png","","2-3_hearts_triangles_D.png","Equal",2104.00000000006,1,NA,NA,NA
"741","22123618","132","69","Distributive","prime2","2-3_circles_squares_D.png","","2-3_circles_squares_D.png","Equal",13004,1,NA,NA,NA
"742","22123618","133","70","Distributive","target","2-3_squares_hearts_C.png","","","Equal",3262,NA,NA,0,2
"743","22123618","229","71","Distributive","filler","2-3_squares_hearts_D.png","2-3_squares_hearts_D.png","","",1624,NA,1,NA,NA
"744","22123618","207","72","Distributive","filler","2-2_squares_triangles_D.png","2-2_squares_triangles_D.png","","",2889,NA,1,NA,NA
"745","22123618","161","73","Control","prime1","1-3_heart_triangles.png","","1-3_heart_triangles.png","Different",2876.00000000006,1,NA,NA,NA
"746","22123618","162","74","Control","prime2","1-3_circle_squares.png","","1-3_circle_squares.png","Different",1491,1,NA,NA,NA
"747","22123618","163","75","Control","target","2-2_triangles_circles_C.png","","","Different",2848,NA,NA,0,2
"748","22123618","149","76","Control","prime1","1-2_square_triangles.png","","1-2_square_triangles.png","Different",2711,1,NA,NA,NA
"749","22123618","150","77","Control","prime2","1-2_heart_circles.png","","1-2_heart_circles.png","Different",2341,1,NA,NA,NA
"750","22123618","151","78","Control","target","2-3_squares_triangles_C.png","","","Different",1754,NA,NA,0,2
"751","22123618","222","79","Distributive","filler","2-3_squares_triangles_D.png","2-3_squares_triangles_D.png","","",3212,NA,1,NA,NA
"752","22123618","225","80","Distributive","filler","2-3_hearts_circles_D.png","2-3_hearts_circles_D.png","","",1686,NA,1,NA,NA
"753","22123618","214","81","Distributive","filler","2-2_hearts_squares_D.png","2-2_hearts_squares_D.png","","",2646,NA,1,NA,NA
"754","22123618","194","82","Cumulative","filler","2-3_hearts_triangles_C.png","2-3_hearts_triangles_C.png","","",2399,NA,1,NA,NA
"755","22123618","119","83","Distributive","prime1","2-3_triangles_circles_D.png","","2-3_triangles_circles_D.png","Different",4010.99999999994,1,NA,NA,NA
"756","22123618","120","84","Distributive","prime2","2-3_squares_hearts_D.png","","2-3_squares_hearts_D.png","Different",2435,1,NA,NA,NA
"757","22123618","121","85","Distributive","target","2-2_squares_circles_C.png","","","Different",5499.00000000006,NA,NA,0,2
"758","22123618","196","86","Cumulative","filler","2-3_squares_hearts_C.png","2-3_squares_hearts_C.png","","",10449,NA,1,NA,NA
"759","22123618","201","87","Cumulative","filler","2-3_circles_hearts_C.png","2-3_circles_hearts_C.png","","",4531,NA,1,NA,NA
